2,2,100,1,GDOP,,,,,,,,,,,,,,,,,,,,,,,,,,,,,,,,,
Time_ms,Pos_X,Pos_Y,Pos_Z,Vel_X,Vel_Y,Vel_Z,Acc_X,Acc_Y,Acc_Z,Jerk_X,Jerk_Y,Jerk_Z,Lat,Long,Height,Heading,Elevation,Bank,Ang-vel_X,Ang-vel_Y,Ang-vel_Z,Ang-acc_X,Ang-acc_Y,Ang-acc_Z,Ant1_Pos_X,Ant1_Pos_Y,Ant1_Pos_Z,Ant1_Vel_X,Ant1_Vel_Y,Ant1_Vel_Z,Ant1_Acc_X,Ant1_Acc_Y,Ant1_Acc_Z,Ant1_Lat,Ant1_Long,Ant1_Height,Ant1_DOP
0,-713342.9817,-4045569.083,4862925.394,-6.023,6.5623,4.5452,0,0,0,0,0,0,0.872664626,-1.745329252,178,-0.785398163,0,0,0,-0.000002,0.000001,0,0,0,-713342.9817,-4045569.083,4862925.394,-6.023,6.5623,4.5452,0,0,0,0.872664626,-1.745329252,178,2.296
100,-713343.584,-4045568.427,4862925.848,-6.023,6.5623,4.5452,0,0,0,0,0,0,0.872664737,-1.745329424,178,-0.785398163,0,0,0,-0.000002,0.000001,0,0,0,-713343.584,-4045568.427,4862925.848,-6.023,6.5623,4.5452,0,0,0,0.872664737,-1.745329424,178,2.296
200,-713344.1863,-4045567.771,4862926.303,-6.023,6.5623,4.5452,0,0,0,0,0,0,0.872664848,-1.745329596,178,-0.785398163,0,0,0,-0.000002,0.000001,0,0,0,-713344.1863,-4045567.771,4862926.303,-6.023,6.5623,4.5452,0,0,0,0.872664848,-1.745329596,178,2.296
300,-713344.7886,-4045567.115,4862926.757,-6.023,6.5623,4.5452,0,0,0,0,0,0,0.872664959,-1.745329768,178,-0.785398163,0,0,0,-0.000002,0.000001,0,0,0,-713344.7886,-4045567.115,4862926.757,-6.023,6.5623,4.5452,0,0,0,0.872664959,-1.745329768,178,2.296
400,-713345.3909,-4045566.458,4862927.212,-6.023,6.5623,4.5452,0,0,0,0,0,0,0.87266507,-1.745329941,178,-0.785398163,0,0,0,-0.000002,0.000001,0,0,0,-713345.3909,-4045566.458,4862927.212,-6.023,6.5623,4.5452,0,0,0,0.87266507,-1.745329941,178,2.296
500,-713345.9932,-4045565.802,4862927.666,-6.023,6.5623,4.5452,0,0,0,0,0,0,0.872665181,-1.745330113,178,-0.785398163,0,0,0,-0.000002,0.000001,0,0,0,-713345.9932,-4045565.802,4862927.666,-6.023,6.5623,4.5452,0,0,0,0.872665181,-1.745330113,178,2.296
600,-713346.5955,-4045565.146,4862928.121,-6.023,6.5623,4.5452,0,0,0,0,0,0,0.872665292,-1.745330285,178,-0.785398163,0,0,0,-0.000002,0.000001,0,0,0,-713346.5955,-4045565.146,4862928.121,-6.023,6.5623,4.5452,0,0,0,0.872665292,-1.745330285,178,2.296
700,-713347.1978,-4045564.49,4862928.575,-6.023,6.5623,4.5452,0,0,0,0,0,0,0.872665403,-1.745330457,178,-0.785398163,0,0,0,-0.000002,0.000001,0,0,0,-713347.1978,-4045564.49,4862928.575,-6.023,6.5623,4.5452,0,0,0,0.872665403,-1.745330457,178,2.296
800,-713347.8001,-4045563.833,4862929.03,-6.023,6.5623,4.5452,0,0,0,0,0,0,0.872665514,-1.745330629,178,-0.785398163,0,0,0,-0.000002,0.000001,0,0,0,-713347.8001,-4045563.833,4862929.03,-6.023,6.5623,4.5452,0,0,0,0.872665514,-1.745330629,178,2.296
900,-713348.4024,-4045563.177,4862929.484,-6.023,6.5624,4.5452,0,0,0,0,0,0,0.872665625,-1.745330801,178,-0.785398163,0,0,0,-0.000002,0.000001,0,0,0,-713348.4024,-4045563.177,4862929.484,-6.023,6.5624,4.5452,0,0,0,0.872665625,-1.745330801,178,2.296
1000,-713349.0047,-4045562.521,4862929.939,-6.023,6.5624,4.5452,0,0,0,0,0,0,0.872665736,-1.745330973,178,-0.785398163,0,0,0,-0.000002,0.000001,0,0,0,-713349.0047,-4045562.521,4862929.939,-6.023,6.5624,4.5452,0,0,0,0.872665736,-1.745330973,178,2.296
1100,-713349.607,-4045561.865,4862930.393,-6.023,6.5624,4.5452,0,0,0,0,0,0,0.872665846,-1.745331145,178,-0.785398163,0,0,0,-0.000002,0.000001,0,0,0,-713349.607,-4045561.865,4862930.393,-6.023,6.5624,4.5452,0,0,0,0.872665846,-1.745331145,178,2.296
1200,-713350.2093,-4045561.209,4862930.848,-6.023,6.5624,4.5452,0,0,0,0,0,0,0.872665957,-1.745331318,178,-0.785398163,0,0,0,-0.000002,0.000001,0,0,0,-713350.2093,-4045561.209,4862930.848,-6.023,6.5624,4.5452,0,0,0,0.872665957,-1.745331318,178,2.296
1300,-713350.8116,-4045560.552,4862931.302,-6.023,6.5624,4.5452,0,0,0,0,0,0,0.872666068,-1.74533149,178,-0.785398163,0,0,0,-0.000002,0.000001,0,0,0,-713350.8116,-4045560.552,4862931.302,-6.023,6.5624,4.5452,0,0,0,0.872666068,-1.74533149,178,2.296
1400,-713351.4139,-4045559.896,4862931.757,-6.023,6.5624,4.5452,0,0,0,0,0,0,0.872666179,-1.745331662,178,-0.785398163,0,0,0,-0.000002,0.000001,0,0,0,-713351.4139,-4045559.896,4862931.757,-6.023,6.5624,4.5452,0,0,0,0.872666179,-1.745331662,178,2.296
1500,-713352.0162,-4045559.24,4862932.211,-6.023,6.5624,4.5452,0,0,0,0,0,0,0.87266629,-1.745331834,178,-0.785398163,0,0,0,-0.000002,0.000001,0,0,0,-713352.0162,-4045559.24,4862932.211,-6.023,6.5624,4.5452,0,0,0,0.87266629,-1.745331834,178,2.296
1600,-713352.6185,-4045558.584,4862932.666,-6.023,6.5624,4.5452,0,0,0,0,0,0,0.872666401,-1.745332006,178,-0.785398163,0,0,0,-0.000002,0.000001,0,0,0,-713352.6185,-4045558.584,4862932.666,-6.023,6.5624,4.5452,0,0,0,0.872666401,-1.745332006,178,2.296
1700,-713353.2208,-4045557.927,4862933.12,-6.023,6.5624,4.5452,0,0,0,0,0,0,0.872666512,-1.745332178,178,-0.785398163,0,0,0,-0.000002,0.000001,0,0,0,-713353.2208,-4045557.927,4862933.12,-6.023,6.5624,4.5452,0,0,0,0.872666512,-1.745332178,178,2.296
1800,-713353.8231,-4045557.271,4862933.575,-6.023,6.5624,4.5452,0,0,0,0,0,0,0.872666623,-1.74533235,178,-0.785398163,0,0,0,-0.000002,0.000001,0,0,0,-713353.8231,-4045557.271,4862933.575,-6.023,6.5624,4.5452,0,0,0,0.872666623,-1.74533235,178,2.296
1900,-713354.4254,-4045556.615,4862934.03,-6.023,6.5624,4.5452,0,0,0,0,0,0,0.872666734,-1.745332522,178,-0.785398163,0,0,0,-0.000002,0.000001,0,0,0,-713354.4254,-4045556.615,4862934.03,-6.023,6.5624,4.5452,0,0,0,0.872666734,-1.745332522,178,2.296
2000,-713355.0277,-4045555.959,4862934.484,-6.023,6.5624,4.5452,0,0,0,0,0,0,0.872666845,-1.745332695,178,-0.785398163,0,0,0,-0.000002,0.000001,0,0,0,-713355.0277,-4045555.959,4862934.484,-6.023,6.5624,4.5452,0,0,0,0.872666845,-1.745332695,178,2.296
2100,-713355.63,-4045555.302,4862934.939,-6.023,6.5624,4.5452,0,0,0,0,0,0,0.872666956,-1.745332867,178,-0.785398163,0,0,0,-0.000002,0.000001,0,0,0,-713355.63,-4045555.302,4862934.939,-6.023,6.5624,4.5452,0,0,0,0.872666956,-1.745332867,178,2.296
2200,-713356.2323,-4045554.646,4862935.393,-6.023,6.5624,4.5452,0,0,0,0,0,0,0.872667067,-1.745333039,178,-0.785398163,0,0,0,-0.000002,0.000001,0,0,0,-713356.2323,-4045554.646,4862935.393,-6.023,6.5624,4.5452,0,0,0,0.872667067,-1.745333039,178,2.296
2300,-713356.8346,-4045553.99,4862935.848,-6.023,6.5624,4.5452,0,0,0,0,0,0,0.872667178,-1.745333211,178,-0.785398163,0,0,0,-0.000002,0.000001,0,0,0,-713356.8346,-4045553.99,4862935.848,-6.023,6.5624,4.5452,0,0,0,0.872667178,-1.745333211,178,2.296
2400,-713357.4369,-4045553.334,4862936.302,-6.023,6.5624,4.5452,0,0,0,0,0,0,0.872667289,-1.745333383,178,-0.785398163,0,0,0,-0.000002,0.000001,0,0,0,-713357.4369,-4045553.334,4862936.302,-6.023,6.5624,4.5452,0,0,0,0.872667289,-1.745333383,178,2.296
2500,-713358.0393,-4045552.677,4862936.757,-6.023,6.5624,4.5452,0,0,0,0,0,0,0.8726674,-1.745333555,178,-0.785398163,0,0,0,-0.000002,0.000001,0,0,0,-713358.0393,-4045552.677,4862936.757,-6.023,6.5624,4.5452,0,0,0,0.8726674,-1.745333555,178,2.296
2600,-713358.6416,-4045552.021,4862937.211,-6.023,6.5624,4.5452,0,0,0,0,0,0,0.872667511,-1.745333727,178,-0.785398163,0,0,0,-0.000002,0.000001,0,0,0,-713358.6416,-4045552.021,4862937.211,-6.023,6.5624,4.5452,0,0,0,0.872667511,-1.745333727,178,2.296
2700,-713359.2439,-4045551.365,4862937.666,-6.023,6.5624,4.5452,0,0,0,0,0,0,0.872667622,-1.7453339,178,-0.785398163,0,0,0,-0.000002,0.000001,0,0,0,-713359.2439,-4045551.365,4862937.666,-6.023,6.5624,4.5452,0,0,0,0.872667622,-1.7453339,178,2.296
2800,-713359.8462,-4045550.709,4862938.12,-6.023,6.5624,4.5452,0,0,0,0,0,0,0.872667733,-1.745334072,178,-0.785398163,0,0,0,-0.000002,0.000001,0,0,0,-713359.8462,-4045550.709,4862938.12,-6.023,6.5624,4.5452,0,0,0,0.872667733,-1.745334072,178,2.296
2900,-713360.4485,-4045550.053,4862938.575,-6.023,6.5624,4.5452,0,0,0,0,0,0,0.872667844,-1.745334244,178,-0.785398163,0,0,0,-0.000002,0.000001,0,0,0,-713360.4485,-4045550.053,4862938.575,-6.023,6.5624,4.5452,0,0,0,0.872667844,-1.745334244,178,2.296
3000,-713361.0508,-4045549.396,4862939.029,-6.023,6.5624,4.5452,0,0,0,0,0,0,0.872667955,-1.745334416,178,-0.785398163,0,0,0,-0.000002,0.000001,0,0,0,-713361.0508,-4045549.396,4862939.029,-6.023,6.5624,4.5452,0,0,0,0.872667955,-1.745334416,178,2.296
3100,-713361.653,-4045548.74,4862939.484,-6.023,6.5624,4.5452,0,0,0,0,0,0,0.872668065,-1.745334588,178,-0.785398163,0,0,0,-0.000002,0.000001,0,0,0,-713361.653,-4045548.74,4862939.484,-6.023,6.5624,4.5452,0,0,0,0.872668065,-1.745334588,178,2.296
3200,-713362.2553,-4045548.084,4862939.938,-6.023,6.5624,4.5452,0,0,0,0,0,0,0.872668176,-1.74533476,178,-0.785398163,0,0,0,-0.000002,0.000001,0,0,0,-713362.2553,-4045548.084,4862939.938,-6.023,6.5624,4.5452,0,0,0,0.872668176,-1.74533476,178,2.296
3300,-713362.8576,-4045547.428,4862940.393,-6.023,6.5624,4.5452,0,0,0,0,0,0,0.872668287,-1.745334932,178,-0.785398163,0,0,0,-0.000002,0.000001,0,0,0,-713362.8576,-4045547.428,4862940.393,-6.023,6.5624,4.5452,0,0,0,0.872668287,-1.745334932,178,2.296
3400,-713363.4599,-4045546.771,4862940.847,-6.023,6.5624,4.5452,0,0,0,0,0,0,0.872668398,-1.745335104,178,-0.785398163,0,0,0,-0.000002,0.000001,0,0,0,-713363.4599,-4045546.771,4862940.847,-6.023,6.5624,4.5452,0,0,0,0.872668398,-1.745335104,178,2.296
3500,-713364.0622,-4045546.115,4862941.302,-6.023,6.5624,4.5452,0,0,0,0,0,0,0.872668509,-1.745335277,178,-0.785398163,0,0,0,-0.000002,0.000001,0,0,0,-713364.0622,-4045546.115,4862941.302,-6.023,6.5624,4.5452,0,0,0,0.872668509,-1.745335277,178,2.296
3600,-713364.6645,-4045545.459,4862941.756,-6.023,6.5624,4.5452,0,0,0,0,0,0,0.87266862,-1.745335449,178,-0.785398163,0,0,0,-0.000002,0.000001,0,0,0,-713364.6645,-4045545.459,4862941.756,-6.023,6.5624,4.5452,0,0,0,0.87266862,-1.745335449,178,2.296
3700,-713365.2668,-4045544.803,4862942.211,-6.023,6.5624,4.5452,0,0,0,0,0,0,0.872668731,-1.745335621,178,-0.785398163,0,0,0,-0.000002,0.000001,0,0,0,-713365.2668,-4045544.803,4862942.211,-6.023,6.5624,4.5452,0,0,0,0.872668731,-1.745335621,178,2.296
3800,-713365.8691,-4045544.146,4862942.665,-6.023,6.5624,4.5452,0,0,0,0,0,0,0.872668842,-1.745335793,178,-0.785398163,0,0,0,-0.000002,0.000001,0,0,0,-713365.8691,-4045544.146,4862942.665,-6.023,6.5624,4.5452,0,0,0,0.872668842,-1.745335793,178,2.296
3900,-713366.4714,-4045543.49,4862943.12,-6.023,6.5624,4.5452,0,0,0,0,0,0,0.872668953,-1.745335965,178,-0.785398163,0,0,0,-0.000002,0.000001,0,0,0,-713366.4714,-4045543.49,4862943.12,-6.023,6.5624,4.5452,0,0,0,0.872668953,-1.745335965,178,2.296
4000,-713367.0737,-4045542.834,4862943.574,-6.023,6.5624,4.5452,0,0,0,0,0,0,0.872669064,-1.745336137,178,-0.785398163,0,0,0,-0.000002,0.000001,0,0,0,-713367.0737,-4045542.834,4862943.574,-6.023,6.5624,4.5452,0,0,0,0.872669064,-1.745336137,178,2.296
4100,-713367.676,-4045542.178,4862944.029,-6.023,6.5624,4.5452,0,0,0,0,0,0,0.872669175,-1.745336309,178,-0.785398163,0,0,0,-0.000002,0.000001,0,0,0,-713367.676,-4045542.178,4862944.029,-6.023,6.5624,4.5452,0,0,0,0.872669175,-1.745336309,178,2.296
4200,-713368.2783,-4045541.521,4862944.483,-6.023,6.5624,4.5452,0,0,0,0,0,0,0.872669286,-1.745336481,178,-0.785398163,0,0,0,-0.000002,0.000001,0,0,0,-713368.2783,-4045541.521,4862944.483,-6.023,6.5624,4.5452,0,0,0,0.872669286,-1.745336481,178,2.295
4300,-713368.8806,-4045540.865,4862944.938,-6.023,6.5624,4.5452,0,0,0,0,0,0,0.872669397,-1.745336654,178,-0.785398163,0,0,0,-0.000002,0.000001,0,0,0,-713368.8806,-4045540.865,4862944.938,-6.023,6.5624,4.5452,0,0,0,0.872669397,-1.745336654,178,2.295
4400,-713369.4829,-4045540.209,4862945.392,-6.023,6.5624,4.5452,0,0,0,0,0,0,0.872669508,-1.745336826,178,-0.785398163,0,0,0,-0.000002,0.000001,0,0,0,-713369.4829,-4045540.209,4862945.392,-6.023,6.5624,4.5452,0,0,0,0.872669508,-1.745336826,178,2.295
4500,-713370.0852,-4045539.553,4862945.847,-6.023,6.5624,4.5452,0,0,0,0,0,0,0.872669619,-1.745336998,178,-0.785398163,0,0,0,-0.000002,0.000001,0,0,0,-713370.0852,-4045539.553,4862945.847,-6.023,6.5624,4.5452,0,0,0,0.872669619,-1.745336998,178,2.295
4600,-713370.6875,-4045538.896,4862946.301,-6.023,6.5624,4.5452,0,0,0,0,0,0,0.87266973,-1.74533717,178,-0.785398163,0,0,0,-0.000002,0.000001,0,0,0,-713370.6875,-4045538.896,4862946.301,-6.023,6.5624,4.5452,0,0,0,0.87266973,-1.74533717,178,2.295
4700,-713371.2898,-4045538.24,4862946.756,-6.023,6.5624,4.5452,0,0,0,0,0,0,0.872669841,-1.745337342,178,-0.785398163,0,0,0,-0.000002,0.000001,0,0,0,-713371.2898,-4045538.24,4862946.756,-6.023,6.5624,4.5452,0,0,0,0.872669841,-1.745337342,178,2.295
4800,-713371.8921,-4045537.584,4862947.211,-6.023,6.5624,4.5452,0,0,0,0,0,0,0.872669952,-1.745337514,178,-0.785398163,0,0,0,-0.000002,0.000001,0,0,0,-713371.8921,-4045537.584,4862947.211,-6.023,6.5624,4.5452,0,0,0,0.872669952,-1.745337514,178,2.295
4900,-713372.4944,-4045536.928,4862947.665,-6.023,6.5624,4.5452,0,0,0,0,0,0,0.872670063,-1.745337686,178,-0.785398163,0,0,0,-0.000002,0.000001,0,0,0,-713372.4944,-4045536.928,4862947.665,-6.023,6.5624,4.5452,0,0,0,0.872670063,-1.745337686,178,2.295
5000,-713373.0967,-4045536.271,4862948.12,-6.023,6.5624,4.5452,0,0,0,0,0,0,0.872670174,-1.745337859,178,-0.785398163,0,0,0,-0.000002,0.000001,0,0,0,-713373.0967,-4045536.271,4862948.12,-6.023,6.5624,4.5452,0,0,0,0.872670174,-1.745337859,178,2.295
5100,-713373.699,-4045535.615,4862948.574,-6.023,6.5624,4.5452,0,0,0,0,0,0,0.872670285,-1.745338031,178,-0.785398163,0,0,0,-0.000002,0.000001,0,0,0,-713373.699,-4045535.615,4862948.574,-6.023,6.5624,4.5452,0,0,0,0.872670285,-1.745338031,178,2.295
5200,-713374.3013,-4045534.959,4862949.029,-6.023,6.5624,4.5452,0,0,0,0,0,0,0.872670395,-1.745338203,178,-0.785398163,0,0,0,-0.000002,0.000001,0,0,0,-713374.3013,-4045534.959,4862949.029,-6.023,6.5624,4.5452,0,0,0,0.872670395,-1.745338203,178,2.295
5300,-713374.9036,-4045534.303,4862949.483,-6.023,6.5624,4.5452,0,0,0,0,0,0,0.872670506,-1.745338375,178,-0.785398163,0,0,0,-0.000002,0.000001,0,0,0,-713374.9036,-4045534.303,4862949.483,-6.023,6.5624,4.5452,0,0,0,0.872670506,-1.745338375,178,2.295
5400,-713375.5059,-4045533.646,4862949.938,-6.023,6.5624,4.5452,0,0,0,0,0,0,0.872670617,-1.745338547,178,-0.785398163,0,0,0,-0.000002,0.000001,0,0,0,-713375.5059,-4045533.646,4862949.938,-6.023,6.5624,4.5452,0,0,0,0.872670617,-1.745338547,178,2.295
5500,-713376.1082,-4045532.99,4862950.392,-6.023,6.5624,4.5452,0,0,0,0,0,0,0.872670728,-1.745338719,178,-0.785398163,0,0,0,-0.000002,0.000001,0,0,0,-713376.1082,-4045532.99,4862950.392,-6.023,6.5624,4.5452,0,0,0,0.872670728,-1.745338719,178,2.295
5600,-713376.7105,-4045532.334,4862950.847,-6.023,6.5624,4.5452,0,0,0,0,0,0,0.872670839,-1.745338891,178,-0.785398163,0,0,0,-0.000002,0.000001,0,0,0,-713376.7105,-4045532.334,4862950.847,-6.023,6.5624,4.5452,0,0,0,0.872670839,-1.745338891,178,2.295
5700,-713377.3128,-4045531.678,4862951.301,-6.023,6.5624,4.5452,0,0,0,0,0,0,0.87267095,-1.745339063,178,-0.785398163,0,0,0,-0.000002,0.000001,0,0,0,-713377.3128,-4045531.678,4862951.301,-6.023,6.5624,4.5452,0,0,0,0.87267095,-1.745339063,178,2.295
5800,-713377.9151,-4045531.022,4862951.756,-6.023,6.5624,4.5452,0,0,0,0,0,0,0.872671061,-1.745339236,178,-0.785398163,0,0,0,-0.000002,0.000001,0,0,0,-713377.9151,-4045531.022,4862951.756,-6.023,6.5624,4.5452,0,0,0,0.872671061,-1.745339236,178,2.295
5900,-713378.5174,-4045530.365,4862952.21,-6.023,6.5624,4.5452,0,0,0,0,0,0,0.872671172,-1.745339408,178,-0.785398163,0,0,0,-0.000002,0.000001,0,0,0,-713378.5174,-4045530.365,4862952.21,-6.023,6.5624,4.5452,0,0,0,0.872671172,-1.745339408,178,2.295
6000,-713379.1197,-4045529.709,4862952.665,-6.023,6.5624,4.5452,0,0,0,0,0,0,0.872671283,-1.74533958,178,-0.785398163,0,0,0,-0.000002,0.000001,0,0,0,-713379.1197,-4045529.709,4862952.665,-6.023,6.5624,4.5452,0,0,0,0.872671283,-1.74533958,178,2.295
6100,-713379.722,-4045529.053,4862953.119,-6.023,6.5624,4.5452,0,0,0,0,0,0,0.872671394,-1.745339752,178,-0.785398163,0,0,0,-0.000002,0.000001,0,0,0,-713379.722,-4045529.053,4862953.119,-6.023,6.5624,4.5452,0,0,0,0.872671394,-1.745339752,178,2.295
6200,-713380.3243,-4045528.397,4862953.574,-6.023,6.5624,4.5452,0,0,0,0,0,0,0.872671505,-1.745339924,178,-0.785398163,0,0,0,-0.000002,0.000001,0,0,0,-713380.3243,-4045528.397,4862953.574,-6.023,6.5624,4.5452,0,0,0,0.872671505,-1.745339924,178,2.295
6300,-713380.9266,-4045527.74,4862954.028,-6.023,6.5624,4.5452,0,0,0,0,0,0,0.872671616,-1.745340096,178,-0.785398163,0,0,0,-0.000002,0.000001,0,0,0,-713380.9266,-4045527.74,4862954.028,-6.023,6.5624,4.5452,0,0,0,0.872671616,-1.745340096,178,2.295
6400,-713381.5289,-4045527.084,4862954.483,-6.023,6.5624,4.5452,0,0,0,0,0,0,0.872671727,-1.745340268,178,-0.785398163,0,0,0,-0.000002,0.000001,0,0,0,-713381.5289,-4045527.084,4862954.483,-6.023,6.5624,4.5452,0,0,0,0.872671727,-1.745340268,178,2.295
6500,-713382.1312,-4045526.428,4862954.937,-6.023,6.5624,4.5452,0,0,0,0,0,0,0.872671838,-1.745340441,178,-0.785398163,0,0,0,-0.000002,0.000001,0,0,0,-713382.1312,-4045526.428,4862954.937,-6.023,6.5624,4.5452,0,0,0,0.872671838,-1.745340441,178,2.295
6600,-713382.7335,-4045525.772,4862955.392,-6.023,6.5624,4.5452,0,0,0,0,0,0,0.872671949,-1.745340613,178,-0.785398163,0,0,0,-0.000002,0.000001,0,0,0,-713382.7335,-4045525.772,4862955.392,-6.023,6.5624,4.5452,0,0,0,0.872671949,-1.745340613,178,2.295
6700,-713383.3358,-4045525.115,4862955.846,-6.023,6.5624,4.5452,0,0,0,0,0,0,0.87267206,-1.745340785,178,-0.785398163,0,0,0,-0.000002,0.000001,0,0,0,-713383.3358,-4045525.115,4862955.846,-6.023,6.5624,4.5452,0,0,0,0.87267206,-1.745340785,178,2.295
6800,-713383.938,-4045524.459,4862956.301,-6.023,6.5624,4.5452,0,0,0,0,0,0,0.872672171,-1.745340957,178,-0.785398163,0,0,0,-0.000002,0.000001,0,0,0,-713383.938,-4045524.459,4862956.301,-6.023,6.5624,4.5452,0,0,0,0.872672171,-1.745340957,178,2.295
6900,-713384.5403,-4045523.803,4862956.755,-6.0229,6.5624,4.5452,0,0,0,0,0,0,0.872672282,-1.745341129,178,-0.785398163,0,0,0,-0.000002,0.000001,0,0,0,-713384.5403,-4045523.803,4862956.755,-6.0229,6.5624,4.5452,0,0,0,0.872672282,-1.745341129,178,2.295
7000,-713385.1426,-4045523.147,4862957.21,-6.0229,6.5624,4.5452,0,0,0,0,0,0,0.872672393,-1.745341301,178,-0.785398163,0,0,0,-0.000002,0.000001,0,0,0,-713385.1426,-4045523.147,4862957.21,-6.0229,6.5624,4.5452,0,0,0,0.872672393,-1.745341301,178,2.295
7100,-713385.7449,-4045522.49,4862957.664,-6.0229,6.5624,4.5452,0,0,0,0,0,0,0.872672504,-1.745341473,178,-0.785398163,0,0,0,-0.000002,0.000001,0,0,0,-713385.7449,-4045522.49,4862957.664,-6.0229,6.5624,4.5452,0,0,0,0.872672504,-1.745341473,178,2.295
7200,-713386.3472,-4045521.834,4862958.119,-6.0229,6.5624,4.5452,0,0,0,0,0,0,0.872672614,-1.745341645,178,-0.785398163,0,0,0,-0.000002,0.000001,0,0,0,-713386.3472,-4045521.834,4862958.119,-6.0229,6.5624,4.5452,0,0,0,0.872672614,-1.745341645,178,2.295
7300,-713386.9495,-4045521.178,4862958.573,-6.0229,6.5624,4.5452,0,0,0,0,0,0,0.872672725,-1.745341818,178,-0.785398163,0,0,0,-0.000002,0.000001,0,0,0,-713386.9495,-4045521.178,4862958.573,-6.0229,6.5624,4.5452,0,0,0,0.872672725,-1.745341818,178,2.295
7400,-713387.5518,-4045520.522,4862959.028,-6.0229,6.5625,4.5452,0,0,0,0,0,0,0.872672836,-1.74534199,178,-0.785398163,0,0,0,-0.000002,0.000001,0,0,0,-713387.5518,-4045520.522,4862959.028,-6.0229,6.5625,4.5452,0,0,0,0.872672836,-1.74534199,178,2.295
7500,-713388.1541,-4045519.865,4862959.482,-6.0229,6.5625,4.5451,0,0,0,0,0,0,0.872672947,-1.745342162,178,-0.785398163,0,0,0,-0.000002,0.000001,0,0,0,-713388.1541,-4045519.865,4862959.482,-6.0229,6.5625,4.5451,0,0,0,0.872672947,-1.745342162,178,2.295
7600,-713388.7564,-4045519.209,4862959.937,-6.0229,6.5625,4.5451,0,0,0,0,0,0,0.872673058,-1.745342334,178,-0.785398163,0,0,0,-0.000002,0.000001,0,0,0,-713388.7564,-4045519.209,4862959.937,-6.0229,6.5625,4.5451,0,0,0,0.872673058,-1.745342334,178,2.295
7700,-713389.3587,-4045518.553,4862960.391,-6.0229,6.5625,4.5451,0,0,0,0,0,0,0.872673169,-1.745342506,178,-0.785398163,0,0,0,-0.000002,0.000001,0,0,0,-713389.3587,-4045518.553,4862960.391,-6.0229,6.5625,4.5451,0,0,0,0.872673169,-1.745342506,178,2.295
7800,-713389.961,-4045517.897,4862960.846,-6.0229,6.5625,4.5451,0,0,0,0,0,0,0.87267328,-1.745342678,178,-0.785398163,0,0,0,-0.000002,0.000001,0,0,0,-713389.961,-4045517.897,4862960.846,-6.0229,6.5625,4.5451,0,0,0,0.87267328,-1.745342678,178,2.295
7900,-713390.5633,-4045517.24,4862961.301,-6.0229,6.5625,4.5451,0,0,0,0,0,0,0.872673391,-1.74534285,178,-0.785398163,0,0,0,-0.000002,0.000001,0,0,0,-713390.5633,-4045517.24,4862961.301,-6.0229,6.5625,4.5451,0,0,0,0.872673391,-1.74534285,178,2.295
8000,-713391.1656,-4045516.584,4862961.755,-6.0229,6.5625,4.5451,0,0,0,0,0,0,0.872673502,-1.745343022,178,-0.785398163,0,0,0,-0.000002,0.000001,0,0,0,-713391.1656,-4045516.584,4862961.755,-6.0229,6.5625,4.5451,0,0,0,0.872673502,-1.745343022,178,2.295
8100,-713391.7679,-4045515.928,4862962.21,-6.0229,6.5625,4.5451,0,0,0,0,0,0,0.872673613,-1.745343195,178,-0.785398163,0,0,0,-0.000002,0.000001,0,0,0,-713391.7679,-4045515.928,4862962.21,-6.0229,6.5625,4.5451,0,0,0,0.872673613,-1.745343195,178,2.295
8200,-713392.3702,-4045515.272,4862962.664,-6.0229,6.5625,4.5451,0,0,0,0,0,0,0.872673724,-1.745343367,178,-0.785398163,0,0,0,-0.000002,0.000001,0,0,0,-713392.3702,-4045515.272,4862962.664,-6.0229,6.5625,4.5451,0,0,0,0.872673724,-1.745343367,178,2.295
8300,-713392.9725,-4045514.615,4862963.119,-6.0229,6.5625,4.5451,0,0,0,0,0,0,0.872673835,-1.745343539,178,-0.785398163,0,0,0,-0.000002,0.000001,0,0,0,-713392.9725,-4045514.615,4862963.119,-6.0229,6.5625,4.5451,0,0,0,0.872673835,-1.745343539,178,2.295
8400,-713393.5748,-4045513.959,4862963.573,-6.0229,6.5625,4.5451,0,0,0,0,0,0,0.872673946,-1.745343711,178,-0.785398163,0,0,0,-0.000002,0.000001,0,0,0,-713393.5748,-4045513.959,4862963.573,-6.0229,6.5625,4.5451,0,0,0,0.872673946,-1.745343711,178,2.295
8500,-713394.177,-4045513.303,4862964.028,-6.0229,6.5625,4.5451,0,0,0,0,0,0,0.872674057,-1.745343883,178,-0.785398163,0,0,0,-0.000002,0.000001,0,0,0,-713394.177,-4045513.303,4862964.028,-6.0229,6.5625,4.5451,0,0,0,0.872674057,-1.745343883,178,2.295
8600,-713394.7793,-4045512.647,4862964.482,-6.0229,6.5625,4.5451,0,0,0,0,0,0,0.872674168,-1.745344055,178,-0.785398163,0,0,0,-0.000002,0.000001,0,0,0,-713394.7793,-4045512.647,4862964.482,-6.0229,6.5625,4.5451,0,0,0,0.872674168,-1.745344055,178,2.295
8700,-713395.3816,-4045511.99,4862964.937,-6.0229,6.5625,4.5451,0,0,0,0,0,0,0.872674279,-1.745344227,178,-0.785398163,0,0,0,-0.000002,0.000001,0,0,0,-713395.3816,-4045511.99,4862964.937,-6.0229,6.5625,4.5451,0,0,0,0.872674279,-1.745344227,178,2.295
8800,-713395.9839,-4045511.334,4862965.391,-6.0229,6.5625,4.5451,0,0,0,0,0,0,0.87267439,-1.7453444,178,-0.785398163,0,0,0,-0.000002,0.000001,0,0,0,-713395.9839,-4045511.334,4862965.391,-6.0229,6.5625,4.5451,0,0,0,0.87267439,-1.7453444,178,2.295
8900,-713396.5862,-4045510.678,4862965.846,-6.0229,6.5625,4.5451,0,0,0,0,0,0,0.872674501,-1.745344572,178,-0.785398163,0,0,0,-0.000002,0.000001,0,0,0,-713396.5862,-4045510.678,4862965.846,-6.0229,6.5625,4.5451,0,0,0,0.872674501,-1.745344572,178,2.295
9000,-713397.1885,-4045510.022,4862966.3,-6.0229,6.5625,4.5451,0,0,0,0,0,0,0.872674612,-1.745344744,178,-0.785398163,0,0,0,-0.000002,0.000001,0,0,0,-713397.1885,-4045510.022,4862966.3,-6.0229,6.5625,4.5451,0,0,0,0.872674612,-1.745344744,178,2.295
9100,-713397.7908,-4045509.365,4862966.755,-6.0229,6.5625,4.5451,0,0,0,0,0,0,0.872674723,-1.745344916,178,-0.785398163,0,0,0,-0.000002,0.000001,0,0,0,-713397.7908,-4045509.365,4862966.755,-6.0229,6.5625,4.5451,0,0,0,0.872674723,-1.745344916,178,2.295
9200,-713398.3931,-4045508.709,4862967.209,-6.0229,6.5625,4.5451,0,0,0,0,0,0,0.872674834,-1.745345088,178,-0.785398163,0,0,0,-0.000002,0.000001,0,0,0,-713398.3931,-4045508.709,4862967.209,-6.0229,6.5625,4.5451,0,0,0,0.872674834,-1.745345088,178,2.295
9300,-713398.9954,-4045508.053,4862967.664,-6.0229,6.5625,4.5451,0,0,0,0,0,0,0.872674944,-1.74534526,178,-0.785398163,0,0,0,-0.000002,0.000001,0,0,0,-713398.9954,-4045508.053,4862967.664,-6.0229,6.5625,4.5451,0,0,0,0.872674944,-1.74534526,178,2.295
9400,-713399.5977,-4045507.397,4862968.118,-6.0229,6.5625,4.5451,0,0,0,0,0,0,0.872675055,-1.745345432,178,-0.785398163,0,0,0,-0.000002,0.000001,0,0,0,-713399.5977,-4045507.397,4862968.118,-6.0229,6.5625,4.5451,0,0,0,0.872675055,-1.745345432,178,2.295
9500,-713400.2,-4045506.74,4862968.573,-6.0229,6.5625,4.5451,0,0,0,0,0,0,0.872675166,-1.745345604,178,-0.785398163,0,0,0,-0.000002,0.000001,0,0,0,-713400.2,-4045506.74,4862968.573,-6.0229,6.5625,4.5451,0,0,0,0.872675166,-1.745345604,178,2.295
9600,-713400.8023,-4045506.084,4862969.027,-6.0229,6.5625,4.5451,0,0,0,0,0,0,0.872675277,-1.745345777,178,-0.785398163,0,0,0,-0.000002,0.000001,0,0,0,-713400.8023,-4045506.084,4862969.027,-6.0229,6.5625,4.5451,0,0,0,0.872675277,-1.745345777,178,2.295
9700,-713401.4046,-4045505.428,4862969.482,-6.0229,6.5625,4.5451,0,0,0,0,0,0,0.872675388,-1.745345949,178,-0.785398163,0,0,0,-0.000002,0.000001,0,0,0,-713401.4046,-4045505.428,4862969.482,-6.0229,6.5625,4.5451,0,0,0,0.872675388,-1.745345949,178,2.295
9800,-713402.0068,-4045504.772,4862969.936,-6.0229,6.5625,4.5451,0,0,0,0,0,0,0.872675499,-1.745346121,178,-0.785398163,0,0,0,-0.000002,0.000001,0,0,0,-713402.0068,-4045504.772,4862969.936,-6.0229,6.5625,4.5451,0,0,0,0.872675499,-1.745346121,178,2.295
9900,-713402.6091,-4045504.115,4862970.391,-6.0229,6.5625,4.5451,0,0,0,0,0,0,0.87267561,-1.745346293,178,-0.785398163,0,0,0,-0.000002,0.000001,0,0,0,-713402.6091,-4045504.115,4862970.391,-6.0229,6.5625,4.5451,0,0,0,0.87267561,-1.745346293,178,2.295
10000,-713403.2114,-4045503.459,4862970.845,-6.0229,6.5625,4.5451,0,0,0,0,0,0,0.872675721,-1.745346465,178,-0.785398163,0,0,0,-0.000002,0.000001,0,0,0,-713403.2114,-4045503.459,4862970.845,-6.0229,6.5625,4.5451,0,0,0,0.872675721,-1.745346465,178,2.295
10100,-713403.8137,-4045502.803,4862971.3,-6.0229,6.5625,4.5451,0,0,0,0,0,0,0.872675832,-1.745346637,178,-0.785398163,0,0,0,-0.000002,0.000001,0,0,0,-713403.8137,-4045502.803,4862971.3,-6.0229,6.5625,4.5451,0,0,0,0.872675832,-1.745346637,178,2.295
10200,-713404.416,-4045502.147,4862971.754,-6.0229,6.5625,4.5451,0,0,0,0,0,0,0.872675943,-1.745346809,178,-0.785398163,0,0,0,-0.000002,0.000001,0,0,0,-713404.416,-4045502.147,4862971.754,-6.0229,6.5625,4.5451,0,0,0,0.872675943,-1.745346809,178,2.294
10300,-713405.0183,-4045501.49,4862972.209,-6.0229,6.5625,4.5451,0,0,0,0,0,0,0.872676054,-1.745346982,178,-0.785398163,0,0,0,-0.000002,0.000001,0,0,0,-713405.0183,-4045501.49,4862972.209,-6.0229,6.5625,4.5451,0,0,0,0.872676054,-1.745346982,178,2.294
10400,-713405.6206,-4045500.834,4862972.663,-6.0229,6.5625,4.5451,0,0,0,0,0,0,0.872676165,-1.745347154,178,-0.785398163,0,0,0,-0.000002,0.000001,0,0,0,-713405.6206,-4045500.834,4862972.663,-6.0229,6.5625,4.5451,0,0,0,0.872676165,-1.745347154,178,2.294
10500,-713406.2229,-4045500.178,4862973.118,-6.0229,6.5625,4.5451,0,0,0,0,0,0,0.872676276,-1.745347326,178,-0.785398163,0,0,0,-0.000002,0.000001,0,0,0,-713406.2229,-4045500.178,4862973.118,-6.0229,6.5625,4.5451,0,0,0,0.872676276,-1.745347326,178,2.294
10600,-713406.8252,-4045499.522,4862973.572,-6.0229,6.5625,4.5451,0,0,0,0,0,0,0.872676387,-1.745347498,178,-0.785398163,0,0,0,-0.000002,0.000001,0,0,0,-713406.8252,-4045499.522,4862973.572,-6.0229,6.5625,4.5451,0,0,0,0.872676387,-1.745347498,178,2.294
10700,-713407.4275,-4045498.865,4862974.027,-6.0229,6.5625,4.5451,0,0,0,0,0,0,0.872676498,-1.74534767,178,-0.785398163,0,0,0,-0.000002,0.000001,0,0,0,-713407.4275,-4045498.865,4862974.027,-6.0229,6.5625,4.5451,0,0,0,0.872676498,-1.74534767,178,2.294
10800,-713408.0298,-4045498.209,4862974.481,-6.0229,6.5625,4.5451,0,0,0,0,0,0,0.872676609,-1.745347842,178,-0.785398163,0,0,0,-0.000002,0.000001,0,0,0,-713408.0298,-4045498.209,4862974.481,-6.0229,6.5625,4.5451,0,0,0,0.872676609,-1.745347842,178,2.294
10900,-713408.632,-4045497.553,4862974.936,-6.0229,6.5625,4.5451,0,0,0,0,0,0,0.87267672,-1.745348014,178,-0.785398163,0,0,0,-0.000002,0.000001,0,0,0,-713408.632,-4045497.553,4862974.936,-6.0229,6.5625,4.5451,0,0,0,0.87267672,-1.745348014,178,2.294
11000,-713409.2343,-4045496.897,4862975.39,-6.0229,6.5625,4.5451,0,0,0,0,0,0,0.872676831,-1.745348186,178,-0.785398163,0,0,0,-0.000002,0.000001,0,0,0,-713409.2343,-4045496.897,4862975.39,-6.0229,6.5625,4.5451,0,0,0,0.872676831,-1.745348186,178,2.294
11100,-713409.8366,-4045496.24,4862975.845,-6.0229,6.5625,4.5451,0,0,0,0,0,0,0.872676942,-1.745348359,178,-0.785398163,0,0,0,-0.000002,0.000001,0,0,0,-713409.8366,-4045496.24,4862975.845,-6.0229,6.5625,4.5451,0,0,0,0.872676942,-1.745348359,178,2.294
11200,-713410.4389,-4045495.584,4862976.299,-6.0229,6.5625,4.5451,0,0,0,0,0,0,0.872677053,-1.745348531,178,-0.785398163,0,0,0,-0.000002,0.000001,0,0,0,-713410.4389,-4045495.584,4862976.299,-6.0229,6.5625,4.5451,0,0,0,0.872677053,-1.745348531,178,2.294
11300,-713411.0412,-4045494.928,4862976.754,-6.0229,6.5625,4.5451,0,0,0,0,0,0,0.872677163,-1.745348703,178,-0.785398163,0,0,0,-0.000002,0.000001,0,0,0,-713411.0412,-4045494.928,4862976.754,-6.0229,6.5625,4.5451,0,0,0,0.872677163,-1.745348703,178,2.294
11400,-713411.6435,-4045494.272,4862977.208,-6.0229,6.5625,4.5451,0,0,0,0,0,0,0.872677274,-1.745348875,178,-0.785398163,0,0,0,-0.000002,0.000001,0,0,0,-713411.6435,-4045494.272,4862977.208,-6.0229,6.5625,4.5451,0,0,0,0.872677274,-1.745348875,178,2.294
11500,-713412.2458,-4045493.615,4862977.663,-6.0229,6.5625,4.5451,0,0,0,0,0,0,0.872677385,-1.745349047,178,-0.785398163,0,0,0,-0.000002,0.000001,0,0,0,-713412.2458,-4045493.615,4862977.663,-6.0229,6.5625,4.5451,0,0,0,0.872677385,-1.745349047,178,2.294
11600,-713412.8481,-4045492.959,4862978.118,-6.0229,6.5625,4.5451,0,0,0,0,0,0,0.872677496,-1.745349219,178,-0.785398163,0,0,0,-0.000002,0.000001,0,0,0,-713412.8481,-4045492.959,4862978.118,-6.0229,6.5625,4.5451,0,0,0,0.872677496,-1.745349219,178,2.294
11700,-713413.4504,-4045492.303,4862978.572,-6.0229,6.5625,4.5451,0,0,0,0,0,0,0.872677607,-1.745349391,178,-0.785398163,0,0,0,-0.000002,0.000001,0,0,0,-713413.4504,-4045492.303,4862978.572,-6.0229,6.5625,4.5451,0,0,0,0.872677607,-1.745349391,178,2.294
11800,-713414.0527,-4045491.647,4862979.027,-6.0229,6.5625,4.5451,0,0,0,0,0,0,0.872677718,-1.745349564,178,-0.785398163,0,0,0,-0.000002,0.000001,0,0,0,-713414.0527,-4045491.647,4862979.027,-6.0229,6.5625,4.5451,0,0,0,0.872677718,-1.745349564,178,2.294
11900,-713414.6549,-4045490.99,4862979.481,-6.0229,6.5625,4.5451,0,0,0,0,0,0,0.872677829,-1.745349736,178,-0.785398163,0,0,0,-0.000002,0.000001,0,0,0,-713414.6549,-4045490.99,4862979.481,-6.0229,6.5625,4.5451,0,0,0,0.872677829,-1.745349736,178,2.294
12000,-713415.2572,-4045490.334,4862979.936,-6.0229,6.5625,4.5451,0,0,0,0,0,0,0.87267794,-1.745349908,178,-0.785398163,0,0,0,-0.000002,0.000001,0,0,0,-713415.2572,-4045490.334,4862979.936,-6.0229,6.5625,4.5451,0,0,0,0.87267794,-1.745349908,178,2.294
12100,-713415.8595,-4045489.678,4862980.39,-6.0229,6.5625,4.5451,0,0,0,0,0,0,0.872678051,-1.74535008,178,-0.785398163,0,0,0,-0.000002,0.000001,0,0,0,-713415.8595,-4045489.678,4862980.39,-6.0229,6.5625,4.5451,0,0,0,0.872678051,-1.74535008,178,2.294
12200,-713416.4618,-4045489.022,4862980.845,-6.0229,6.5625,4.5451,0,0,0,0,0,0,0.872678162,-1.745350252,178,-0.785398163,0,0,0,-0.000002,0.000001,0,0,0,-713416.4618,-4045489.022,4862980.845,-6.0229,6.5625,4.5451,0,0,0,0.872678162,-1.745350252,178,2.294
12300,-713417.0641,-4045488.365,4862981.299,-6.0229,6.5625,4.5451,0,0,0,0,0,0,0.872678273,-1.745350424,178,-0.785398163,0,0,0,-0.000002,0.000001,0,0,0,-713417.0641,-4045488.365,4862981.299,-6.0229,6.5625,4.5451,0,0,0,0.872678273,-1.745350424,178,2.294
12400,-713417.6664,-4045487.709,4862981.754,-6.0229,6.5625,4.5451,0,0,0,0,0,0,0.872678384,-1.745350596,178,-0.785398163,0,0,0,-0.000002,0.000001,0,0,0,-713417.6664,-4045487.709,4862981.754,-6.0229,6.5625,4.5451,0,0,0,0.872678384,-1.745350596,178,2.294
12500,-713418.2687,-4045487.053,4862982.208,-6.0229,6.5625,4.5451,0,0,0,0,0,0,0.872678495,-1.745350768,178,-0.785398163,0,0,0,-0.000002,0.000001,0,0,0,-713418.2687,-4045487.053,4862982.208,-6.0229,6.5625,4.5451,0,0,0,0.872678495,-1.745350768,178,2.294
12600,-713418.871,-4045486.397,4862982.663,-6.0229,6.5625,4.5451,0,0,0,0,0,0,0.872678606,-1.745350941,178,-0.785398163,0,0,0,-0.000002,0.000001,0,0,0,-713418.871,-4045486.397,4862982.663,-6.0229,6.5625,4.5451,0,0,0,0.872678606,-1.745350941,178,2.294
12700,-713419.4732,-4045485.74,4862983.117,-6.0229,6.5625,4.5451,0,0,0,0,0,0,0.872678717,-1.745351113,178,-0.785398163,0,0,0,-0.000002,0.000001,0,0,0,-713419.4732,-4045485.74,4862983.117,-6.0229,6.5625,4.5451,0,0,0,0.872678717,-1.745351113,178,2.294
12800,-713420.0755,-4045485.084,4862983.572,-6.0229,6.5625,4.5451,0,0,0,0,0,0,0.872678828,-1.745351285,178,-0.785398163,0,0,0,-0.000002,0.000001,0,0,0,-713420.0755,-4045485.084,4862983.572,-6.0229,6.5625,4.5451,0,0,0,0.872678828,-1.745351285,178,2.294
12900,-713420.6778,-4045484.428,4862984.026,-6.0229,6.5625,4.5451,0,0,0,0,0,0,0.872678939,-1.745351457,178,-0.785398163,0,0,0,-0.000002,0.000001,0,0,0,-713420.6778,-4045484.428,4862984.026,-6.0229,6.5625,4.5451,0,0,0,0.872678939,-1.745351457,178,2.294
13000,-713421.2801,-4045483.772,4862984.481,-6.0229,6.5625,4.5451,0,0,0,0,0,0,0.87267905,-1.745351629,178,-0.785398163,0,0,0,-0.000002,0.000001,0,0,0,-713421.2801,-4045483.772,4862984.481,-6.0229,6.5625,4.5451,0,0,0,0.87267905,-1.745351629,178,2.294
13100,-713421.8824,-4045483.115,4862984.935,-6.0229,6.5625,4.5451,0,0,0,0,0,0,0.872679161,-1.745351801,178,-0.785398163,0,0,0,-0.000002,0.000001,0,0,0,-713421.8824,-4045483.115,4862984.935,-6.0229,6.5625,4.5451,0,0,0,0.872679161,-1.745351801,178,2.294
13200,-713422.4847,-4045482.459,4862985.39,-6.0229,6.5625,4.5451,0,0,0,0,0,0,0.872679272,-1.745351973,178,-0.785398163,0,0,0,-0.000002,0.000001,0,0,0,-713422.4847,-4045482.459,4862985.39,-6.0229,6.5625,4.5451,0,0,0,0.872679272,-1.745351973,178,2.294
13300,-713423.087,-4045481.803,4862985.844,-6.0229,6.5625,4.5451,0,0,0,0,0,0,0.872679383,-1.745352146,178,-0.785398163,0,0,0,-0.000002,0.000001,0,0,0,-713423.087,-4045481.803,4862985.844,-6.0229,6.5625,4.5451,0,0,0,0.872679383,-1.745352146,178,2.294
13400,-713423.6893,-4045481.147,4862986.299,-6.0229,6.5625,4.5451,0,0,0,0,0,0,0.872679493,-1.745352318,178,-0.785398163,0,0,0,-0.000002,0.000001,0,0,0,-713423.6893,-4045481.147,4862986.299,-6.0229,6.5625,4.5451,0,0,0,0.872679493,-1.745352318,178,2.294
13500,-713424.2915,-4045480.49,4862986.753,-6.0229,6.5625,4.5451,0,0,0,0,0,0,0.872679604,-1.74535249,178,-0.785398163,0,0,0,-0.000002,0.000001,0,0,0,-713424.2915,-4045480.49,4862986.753,-6.0229,6.5625,4.5451,0,0,0,0.872679604,-1.74535249,178,2.294
13600,-713424.8938,-4045479.834,4862987.208,-6.0229,6.5625,4.5451,0,0,0,0,0,0,0.872679715,-1.745352662,178,-0.785398163,0,0,0,-0.000002,0.000001,0,0,0,-713424.8938,-4045479.834,4862987.208,-6.0229,6.5625,4.5451,0,0,0,0.872679715,-1.745352662,178,2.294
13700,-713425.4961,-4045479.178,4862987.662,-6.0229,6.5625,4.5451,0,0,0,0,0,0,0.872679826,-1.745352834,178,-0.785398163,0,0,0,-0.000002,0.000001,0,0,0,-713425.4961,-4045479.178,4862987.662,-6.0229,6.5625,4.5451,0,0,0,0.872679826,-1.745352834,178,2.294
13800,-713426.0984,-4045478.522,4862988.117,-6.0229,6.5625,4.5451,0,0,0,0,0,0,0.872679937,-1.745353006,178,-0.785398163,0,0,0,-0.000002,0.000001,0,0,0,-713426.0984,-4045478.522,4862988.117,-6.0229,6.5625,4.5451,0,0,0,0.872679937,-1.745353006,178,2.294
13900,-713426.7007,-4045477.865,4862988.571,-6.0229,6.5626,4.5451,0,0,0,0,0,0,0.872680048,-1.745353178,178,-0.785398163,0,0,0,-0.000002,0.000001,0,0,0,-713426.7007,-4045477.865,4862988.571,-6.0229,6.5626,4.5451,0,0,0,0.872680048,-1.745353178,178,2.294
14000,-713427.303,-4045477.209,4862989.026,-6.0229,6.5626,4.5451,0,0,0,0,0,0,0.872680159,-1.74535335,178,-0.785398163,0,0,0,-0.000002,0.000001,0,0,0,-713427.303,-4045477.209,4862989.026,-6.0229,6.5626,4.5451,0,0,0,0.872680159,-1.74535335,178,2.294
14100,-713427.9053,-4045476.553,4862989.48,-6.0229,6.5626,4.5451,0,0,0,0,0,0,0.87268027,-1.745353523,178,-0.785398163,0,0,0,-0.000002,0.000001,0,0,0,-713427.9053,-4045476.553,4862989.48,-6.0229,6.5626,4.5451,0,0,0,0.87268027,-1.745353523,178,2.294
14200,-713428.5076,-4045475.897,4862989.935,-6.0229,6.5626,4.5451,0,0,0,0,0,0,0.872680381,-1.745353695,178,-0.785398163,0,0,0,-0.000002,0.000001,0,0,0,-713428.5076,-4045475.897,4862989.935,-6.0229,6.5626,4.5451,0,0,0,0.872680381,-1.745353695,178,2.294
14300,-713429.1098,-4045475.24,4862990.389,-6.0229,6.5626,4.5451,0,0,0,0,0,0,0.872680492,-1.745353867,178,-0.785398163,0,0,0,-0.000002,0.000001,0,0,0,-713429.1098,-4045475.24,4862990.389,-6.0229,6.5626,4.5451,0,0,0,0.872680492,-1.745353867,178,2.294
14400,-713429.7121,-4045474.584,4862990.844,-6.0229,6.5626,4.5451,0,0,0,0,0,0,0.872680603,-1.745354039,178,-0.785398163,0,0,0,-0.000002,0.000001,0,0,0,-713429.7121,-4045474.584,4862990.844,-6.0229,6.5626,4.5451,0,0,0,0.872680603,-1.745354039,178,2.294
14500,-713430.3144,-4045473.928,4862991.298,-6.0229,6.5626,4.5451,0,0,0,0,0,0,0.872680714,-1.745354211,178,-0.785398163,0,0,0,-0.000002,0.000001,0,0,0,-713430.3144,-4045473.928,4862991.298,-6.0229,6.5626,4.5451,0,0,0,0.872680714,-1.745354211,178,2.294
14600,-713430.9167,-4045473.272,4862991.753,-6.0229,6.5626,4.5451,0,0,0,0,0,0,0.872680825,-1.745354383,178,-0.785398163,0,0,0,-0.000002,0.000001,0,0,0,-713430.9167,-4045473.272,4862991.753,-6.0229,6.5626,4.5451,0,0,0,0.872680825,-1.745354383,178,2.294
14700,-713431.519,-4045472.615,4862992.207,-6.0229,6.5626,4.5451,0,0,0,0,0,0,0.872680936,-1.745354555,178,-0.785398163,0,0,0,-0.000002,0.000001,0,0,0,-713431.519,-4045472.615,4862992.207,-6.0229,6.5626,4.5451,0,0,0,0.872680936,-1.745354555,178,2.294
14800,-713432.1213,-4045471.959,4862992.662,-6.0229,6.5626,4.5451,0,0,0,0,0,0,0.872681047,-1.745354728,178,-0.785398163,0,0,0,-0.000002,0.000001,0,0,0,-713432.1213,-4045471.959,4862992.662,-6.0229,6.5626,4.5451,0,0,0,0.872681047,-1.745354728,178,2.294
14900,-713432.7235,-4045471.303,4862993.116,-6.0229,6.5626,4.5451,0,0,0,0,0,0,0.872681158,-1.7453549,178,-0.785398163,0,0,0,-0.000002,0.000001,0,0,0,-713432.7235,-4045471.303,4862993.116,-6.0229,6.5626,4.5451,0,0,0,0.872681158,-1.7453549,178,2.294
15000,-713433.3258,-4045470.647,4862993.571,-6.0229,6.5626,4.5451,0,0,0,0,0,0,0.872681269,-1.745355072,178,-0.785398163,0,0,0,-0.000002,0.000001,0,0,0,-713433.3258,-4045470.647,4862993.571,-6.0229,6.5626,4.5451,0,0,0,0.872681269,-1.745355072,178,2.294
15100,-713433.9281,-4045469.99,4862994.025,-6.0228,6.5626,4.5451,0,0,0,0,0,0,0.87268138,-1.745355244,178,-0.785398163,0,0,0,-0.000002,0.000001,0,0,0,-713433.9281,-4045469.99,4862994.025,-6.0228,6.5626,4.5451,0,0,0,0.87268138,-1.745355244,178,2.294
15200,-713434.5304,-4045469.334,4862994.48,-6.0228,6.5626,4.5451,0,0,0,0,0,0,0.872681491,-1.745355416,178,-0.785398163,0,0,0,-0.000002,0.000001,0,0,0,-713434.5304,-4045469.334,4862994.48,-6.0228,6.5626,4.5451,0,0,0,0.872681491,-1.745355416,178,2.294
15300,-713435.1327,-4045468.678,4862994.934,-6.0228,6.5626,4.5451,0,0,0,0,0,0,0.872681602,-1.745355588,178,-0.785398163,0,0,0,-0.000002,0.000001,0,0,0,-713435.1327,-4045468.678,4862994.934,-6.0228,6.5626,4.5451,0,0,0,0.872681602,-1.745355588,178,2.294
15400,-713435.735,-4045468.022,4862995.389,-6.0228,6.5626,4.5451,0,0,0,0,0,0,0.872681712,-1.74535576,178,-0.785398163,0,0,0,-0.000002,0.000001,0,0,0,-713435.735,-4045468.022,4862995.389,-6.0228,6.5626,4.5451,0,0,0,0.872681712,-1.74535576,178,2.294
15500,-713436.3373,-4045467.365,4862995.843,-6.0228,6.5626,4.5451,0,0,0,0,0,0,0.872681823,-1.745355932,178,-0.785398163,0,0,0,-0.000002,0.000001,0,0,0,-713436.3373,-4045467.365,4862995.843,-6.0228,6.5626,4.5451,0,0,0,0.872681823,-1.745355932,178,2.294
15600,-713436.9395,-4045466.709,4862996.298,-6.0228,6.5626,4.5451,0,0,0,0,0,0,0.872681934,-1.745356105,178,-0.785398163,0,0,0,-0.000002,0.000001,0,0,0,-713436.9395,-4045466.709,4862996.298,-6.0228,6.5626,4.5451,0,0,0,0.872681934,-1.745356105,178,2.294
15700,-713437.5418,-4045466.053,4862996.752,-6.0228,6.5626,4.5451,0,0,0,0,0,0,0.872682045,-1.745356277,178,-0.785398163,0,0,0,-0.000002,0.000001,0,0,0,-713437.5418,-4045466.053,4862996.752,-6.0228,6.5626,4.5451,0,0,0,0.872682045,-1.745356277,178,2.294
15800,-713438.1441,-4045465.396,4862997.207,-6.0228,6.5626,4.5451,0,0,0,0,0,0,0.872682156,-1.745356449,178,-0.785398163,0,0,0,-0.000002,0.000001,0,0,0,-713438.1441,-4045465.396,4862997.207,-6.0228,6.5626,4.5451,0,0,0,0.872682156,-1.745356449,178,2.294
15900,-713438.7464,-4045464.74,4862997.662,-6.0228,6.5626,4.5451,0,0,0,0,0,0,0.872682267,-1.745356621,178,-0.785398163,0,0,0,-0.000002,0.000001,0,0,0,-713438.7464,-4045464.74,4862997.662,-6.0228,6.5626,4.5451,0,0,0,0.872682267,-1.745356621,178,2.294
16000,-713439.3487,-4045464.084,4862998.116,-6.0228,6.5626,4.5451,0,0,0,0,0,0,0.872682378,-1.745356793,178,-0.785398163,0,0,0,-0.000002,0.000001,0,0,0,-713439.3487,-4045464.084,4862998.116,-6.0228,6.5626,4.5451,0,0,0,0.872682378,-1.745356793,178,2.294
16100,-713439.951,-4045463.428,4862998.571,-6.0228,6.5626,4.5451,0,0,0,0,0,0,0.872682489,-1.745356965,178,-0.785398163,0,0,0,-0.000002,0.000001,0,0,0,-713439.951,-4045463.428,4862998.571,-6.0228,6.5626,4.5451,0,0,0,0.872682489,-1.745356965,178,2.294
16200,-713440.5532,-4045462.771,4862999.025,-6.0228,6.5626,4.5451,0,0,0,0,0,0,0.8726826,-1.745357137,178,-0.785398163,0,0,0,-0.000002,0.000001,0,0,0,-713440.5532,-4045462.771,4862999.025,-6.0228,6.5626,4.5451,0,0,0,0.8726826,-1.745357137,178,2.293
16300,-713441.1555,-4045462.115,4862999.48,-6.0228,6.5626,4.5451,0,0,0,0,0,0,0.872682711,-1.74535731,178,-0.785398163,0,0,0,-0.000002,0.000001,0,0,0,-713441.1555,-4045462.115,4862999.48,-6.0228,6.5626,4.5451,0,0,0,0.872682711,-1.74535731,178,2.293
16400,-713441.7578,-4045461.459,4862999.934,-6.0228,6.5626,4.5451,0,0,0,0,0,0,0.872682822,-1.745357482,178,-0.785398163,0,0,0,-0.000002,0.000001,0,0,0,-713441.7578,-4045461.459,4862999.934,-6.0228,6.5626,4.5451,0,0,0,0.872682822,-1.745357482,178,2.293
16500,-713442.3601,-4045460.803,4863000.389,-6.0228,6.5626,4.5451,0,0,0,0,0,0,0.872682933,-1.745357654,178,-0.785398163,0,0,0,-0.000002,0.000001,0,0,0,-713442.3601,-4045460.803,4863000.389,-6.0228,6.5626,4.5451,0,0,0,0.872682933,-1.745357654,178,2.293
16600,-713442.9624,-4045460.146,4863000.843,-6.0228,6.5626,4.5451,0,0,0,0,0,0,0.872683044,-1.745357826,178,-0.785398163,0,0,0,-0.000002,0.000001,0,0,0,-713442.9624,-4045460.146,4863000.843,-6.0228,6.5626,4.5451,0,0,0,0.872683044,-1.745357826,178,2.293
16700,-713443.5647,-4045459.49,4863001.298,-6.0228,6.5626,4.5451,0,0,0,0,0,0,0.872683155,-1.745357998,178,-0.785398163,0,0,0,-0.000002,0.000001,0,0,0,-713443.5647,-4045459.49,4863001.298,-6.0228,6.5626,4.5451,0,0,0,0.872683155,-1.745357998,178,2.293
16800,-713444.1669,-4045458.834,4863001.752,-6.0228,6.5626,4.5451,0,0,0,0,0,0,0.872683266,-1.74535817,178,-0.785398163,0,0,0,-0.000002,0.000001,0,0,0,-713444.1669,-4045458.834,4863001.752,-6.0228,6.5626,4.5451,0,0,0,0.872683266,-1.74535817,178,2.293
16900,-713444.7692,-4045458.178,4863002.207,-6.0228,6.5626,4.5451,0,0,0,0,0,0,0.872683377,-1.745358342,178,-0.785398163,0,0,0,-0.000002,0.000001,0,0,0,-713444.7692,-4045458.178,4863002.207,-6.0228,6.5626,4.5451,0,0,0,0.872683377,-1.745358342,178,2.293
17000,-713445.3715,-4045457.521,4863002.661,-6.0228,6.5626,4.5451,0,0,0,0,0,0,0.872683488,-1.745358514,178,-0.785398163,0,0,0,-0.000002,0.000001,0,0,0,-713445.3715,-4045457.521,4863002.661,-6.0228,6.5626,4.5451,0,0,0,0.872683488,-1.745358514,178,2.293
17100,-713445.9738,-4045456.865,4863003.116,-6.0228,6.5626,4.5451,0,0,0,0,0,0,0.872683599,-1.745358687,178,-0.785398163,0,0,0,-0.000002,0.000001,0,0,0,-713445.9738,-4045456.865,4863003.116,-6.0228,6.5626,4.5451,0,0,0,0.872683599,-1.745358687,178,2.293
17200,-713446.5761,-4045456.209,4863003.57,-6.0228,6.5626,4.5451,0,0,0,0,0,0,0.87268371,-1.745358859,178,-0.785398163,0,0,0,-0.000002,0.000001,0,0,0,-713446.5761,-4045456.209,4863003.57,-6.0228,6.5626,4.5451,0,0,0,0.87268371,-1.745358859,178,2.293
17300,-713447.1784,-4045455.553,4863004.025,-6.0228,6.5626,4.5451,0,0,0,0,0,0,0.872683821,-1.745359031,178,-0.785398163,0,0,0,-0.000002,0.000001,0,0,0,-713447.1784,-4045455.553,4863004.025,-6.0228,6.5626,4.5451,0,0,0,0.872683821,-1.745359031,178,2.293
17400,-713447.7806,-4045454.896,4863004.479,-6.0228,6.5626,4.5451,0,0,0,0,0,0,0.872683932,-1.745359203,178,-0.785398163,0,0,0,-0.000002,0.000001,0,0,0,-713447.7806,-4045454.896,4863004.479,-6.0228,6.5626,4.5451,0,0,0,0.872683932,-1.745359203,178,2.293
17500,-713448.3829,-4045454.24,4863004.934,-6.0228,6.5626,4.5451,0,0,0,0,0,0,0.872684042,-1.745359375,178,-0.785398163,0,0,0,-0.000002,0.000001,0,0,0,-713448.3829,-4045454.24,4863004.934,-6.0228,6.5626,4.5451,0,0,0,0.872684042,-1.745359375,178,2.293
17600,-713448.9852,-4045453.584,4863005.388,-6.0228,6.5626,4.5451,0,0,0,0,0,0,0.872684153,-1.745359547,178,-0.785398163,0,0,0,-0.000002,0.000001,0,0,0,-713448.9852,-4045453.584,4863005.388,-6.0228,6.5626,4.5451,0,0,0,0.872684153,-1.745359547,178,2.293
17700,-713449.5875,-4045452.928,4863005.843,-6.0228,6.5626,4.5451,0,0,0,0,0,0,0.872684264,-1.745359719,178,-0.785398163,0,0,0,-0.000002,0.000001,0,0,0,-713449.5875,-4045452.928,4863005.843,-6.0228,6.5626,4.5451,0,0,0,0.872684264,-1.745359719,178,2.293
17800,-713450.1898,-4045452.271,4863006.297,-6.0228,6.5626,4.5451,0,0,0,0,0,0,0.872684375,-1.745359892,178,-0.785398163,0,0,0,-0.000002,0.000001,0,0,0,-713450.1898,-4045452.271,4863006.297,-6.0228,6.5626,4.5451,0,0,0,0.872684375,-1.745359892,178,2.293
17900,-713450.7921,-4045451.615,4863006.752,-6.0228,6.5626,4.5451,0,0,0,0,0,0,0.872684486,-1.745360064,178,-0.785398163,0,0,0,-0.000002,0.000001,0,0,0,-713450.7921,-4045451.615,4863006.752,-6.0228,6.5626,4.5451,0,0,0,0.872684486,-1.745360064,178,2.293
18000,-713451.3943,-4045450.959,4863007.206,-6.0228,6.5626,4.5451,0,0,0,0,0,0,0.872684597,-1.745360236,178,-0.785398163,0,0,0,-0.000002,0.000001,0,0,0,-713451.3943,-4045450.959,4863007.206,-6.0228,6.5626,4.5451,0,0,0,0.872684597,-1.745360236,178,2.293
18100,-713451.9966,-4045450.303,4863007.661,-6.0228,6.5626,4.5451,0,0,0,0,0,0,0.872684708,-1.745360408,178,-0.785398163,0,0,0,-0.000002,0.000001,0,0,0,-713451.9966,-4045450.303,4863007.661,-6.0228,6.5626,4.5451,0,0,0,0.872684708,-1.745360408,178,2.293
18200,-713452.5989,-4045449.646,4863008.115,-6.0228,6.5626,4.5451,0,0,0,0,0,0,0.872684819,-1.74536058,178,-0.785398163,0,0,0,-0.000002,0.000001,0,0,0,-713452.5989,-4045449.646,4863008.115,-6.0228,6.5626,4.5451,0,0,0,0.872684819,-1.74536058,178,2.293
18300,-713453.2012,-4045448.99,4863008.57,-6.0228,6.5626,4.5451,0,0,0,0,0,0,0.87268493,-1.745360752,178,-0.785398163,0,0,0,-0.000002,0.000001,0,0,0,-713453.2012,-4045448.99,4863008.57,-6.0228,6.5626,4.5451,0,0,0,0.87268493,-1.745360752,178,2.293
18400,-713453.8035,-4045448.334,4863009.024,-6.0228,6.5626,4.5451,0,0,0,0,0,0,0.872685041,-1.745360924,178,-0.785398163,0,0,0,-0.000002,0.000001,0,0,0,-713453.8035,-4045448.334,4863009.024,-6.0228,6.5626,4.5451,0,0,0,0.872685041,-1.745360924,178,2.293
18500,-713454.4057,-4045447.677,4863009.479,-6.0228,6.5626,4.5451,0,0,0,0,0,0,0.872685152,-1.745361096,178,-0.785398163,0,0,0,-0.000002,0.000001,0,0,0,-713454.4057,-4045447.677,4863009.479,-6.0228,6.5626,4.5451,0,0,0,0.872685152,-1.745361096,178,2.293
18600,-713455.008,-4045447.021,4863009.933,-6.0228,6.5626,4.5451,0,0,0,0,0,0,0.872685263,-1.745361269,178,-0.785398163,0,0,0,-0.000002,0.000001,0,0,0,-713455.008,-4045447.021,4863009.933,-6.0228,6.5626,4.5451,0,0,0,0.872685263,-1.745361269,178,2.293
18700,-713455.6103,-4045446.365,4863010.388,-6.0228,6.5626,4.5451,0,0,0,0,0,0,0.872685374,-1.745361441,178,-0.785398163,0,0,0,-0.000002,0.000001,0,0,0,-713455.6103,-4045446.365,4863010.388,-6.0228,6.5626,4.5451,0,0,0,0.872685374,-1.745361441,178,2.293
18800,-713456.2126,-4045445.709,4863010.842,-6.0228,6.5626,4.5451,0,0,0,0,0,0,0.872685485,-1.745361613,178,-0.785398163,0,0,0,-0.000002,0.000001,0,0,0,-713456.2126,-4045445.709,4863010.842,-6.0228,6.5626,4.5451,0,0,0,0.872685485,-1.745361613,178,2.293
18900,-713456.8149,-4045445.052,4863011.297,-6.0228,6.5626,4.5451,0,0,0,0,0,0,0.872685596,-1.745361785,178,-0.785398163,0,0,0,-0.000002,0.000001,0,0,0,-713456.8149,-4045445.052,4863011.297,-6.0228,6.5626,4.5451,0,0,0,0.872685596,-1.745361785,178,2.293
19000,-713457.4171,-4045444.396,4863011.751,-6.0228,6.5626,4.5451,0,0,0,0,0,0,0.872685707,-1.745361957,178,-0.785398163,0,0,0,-0.000002,0.000001,0,0,0,-713457.4171,-4045444.396,4863011.751,-6.0228,6.5626,4.5451,0,0,0,0.872685707,-1.745361957,178,2.293
19100,-713458.0194,-4045443.74,4863012.206,-6.0228,6.5626,4.5451,0,0,0,0,0,0,0.872685818,-1.745362129,178,-0.785398163,0,0,0,-0.000002,0.000001,0,0,0,-713458.0194,-4045443.74,4863012.206,-6.0228,6.5626,4.5451,0,0,0,0.872685818,-1.745362129,178,2.293
19200,-713458.6217,-4045443.084,4863012.66,-6.0228,6.5626,4.5451,0,0,0,0,0,0,0.872685929,-1.745362301,178,-0.785398163,0,0,0,-0.000002,0.000001,0,0,0,-713458.6217,-4045443.084,4863012.66,-6.0228,6.5626,4.5451,0,0,0,0.872685929,-1.745362301,178,2.293
19300,-713459.224,-4045442.427,4863013.115,-6.0228,6.5626,4.5451,0,0,0,0,0,0,0.87268604,-1.745362474,178,-0.785398163,0,0,0,-0.000002,0.000001,0,0,0,-713459.224,-4045442.427,4863013.115,-6.0228,6.5626,4.5451,0,0,0,0.87268604,-1.745362474,178,2.293
19400,-713459.8263,-4045441.771,4863013.569,-6.0228,6.5626,4.5451,0,0,0,0,0,0,0.872686151,-1.745362646,178,-0.785398163,0,0,0,-0.000002,0.000001,0,0,0,-713459.8263,-4045441.771,4863013.569,-6.0228,6.5626,4.5451,0,0,0,0.872686151,-1.745362646,178,2.293
19500,-713460.4285,-4045441.115,4863014.024,-6.0228,6.5626,4.5451,0,0,0,0,0,0,0.872686261,-1.745362818,178,-0.785398163,0,0,0,-0.000002,0.000001,0,0,0,-713460.4285,-4045441.115,4863014.024,-6.0228,6.5626,4.5451,0,0,0,0.872686261,-1.745362818,178,2.293
19600,-713461.0308,-4045440.459,4863014.478,-6.0228,6.5626,4.5451,0,0,0,0,0,0,0.872686372,-1.74536299,178,-0.785398163,0,0,0,-0.000002,0.000001,0,0,0,-713461.0308,-4045440.459,4863014.478,-6.0228,6.5626,4.5451,0,0,0,0.872686372,-1.74536299,178,2.293
19700,-713461.6331,-4045439.802,4863014.933,-6.0228,6.5626,4.5451,0,0,0,0,0,0,0.872686483,-1.745363162,178,-0.785398163,0,0,0,-0.000002,0.000001,0,0,0,-713461.6331,-4045439.802,4863014.933,-6.0228,6.5626,4.5451,0,0,0,0.872686483,-1.745363162,178,2.293
19800,-713462.2354,-4045439.146,4863015.387,-6.0228,6.5626,4.5451,0,0,0,0,0,0,0.872686594,-1.745363334,178,-0.785398163,0,0,0,-0.000002,0.000001,0,0,0,-713462.2354,-4045439.146,4863015.387,-6.0228,6.5626,4.5451,0,0,0,0.872686594,-1.745363334,178,2.293
19900,-713462.8377,-4045438.49,4863015.842,-6.0228,6.5626,4.5451,0,0,0,0,0,0,0.872686705,-1.745363506,178,-0.785398163,0,0,0,-0.000002,0.000001,0,0,0,-713462.8377,-4045438.49,4863015.842,-6.0228,6.5626,4.5451,0,0,0,0.872686705,-1.745363506,178,2.293
20000,-713463.4399,-4045437.834,4863016.296,-6.0228,6.5626,4.5451,0,0,0,0,0,0,0.872686816,-1.745363678,178,-0.785398163,0,0,0,-0.000002,0.000001,0,0,0,-713463.4399,-4045437.834,4863016.296,-6.0228,6.5626,4.5451,0,0,0,0.872686816,-1.745363678,178,2.293
20100,-713464.0422,-4045437.177,4863016.751,-6.0228,6.5626,4.5451,0,0,0,0,0,0,0.872686927,-1.745363851,178,-0.785398163,0,0,0,-0.000002,0.000001,0,0,0,-713464.0422,-4045437.177,4863016.751,-6.0228,6.5626,4.5451,0,0,0,0.872686927,-1.745363851,178,2.293
20200,-713464.6445,-4045436.521,4863017.205,-6.0228,6.5626,4.5451,0,0,0,0,0,0,0.872687038,-1.745364023,178,-0.785398163,0,0,0,-0.000002,0.000001,0,0,0,-713464.6445,-4045436.521,4863017.205,-6.0228,6.5626,4.5451,0,0,0,0.872687038,-1.745364023,178,2.293
20300,-713465.2468,-4045435.865,4863017.66,-6.0228,6.5626,4.5451,0,0,0,0,0,0,0.872687149,-1.745364195,178,-0.785398163,0,0,0,-0.000002,0.000001,0,0,0,-713465.2468,-4045435.865,4863017.66,-6.0228,6.5626,4.5451,0,0,0,0.872687149,-1.745364195,178,2.293
20400,-713465.8491,-4045435.208,4863018.114,-6.0228,6.5627,4.5451,0,0,0,0,0,0,0.87268726,-1.745364367,178,-0.785398163,0,0,0,-0.000002,0.000001,0,0,0,-713465.8491,-4045435.208,4863018.114,-6.0228,6.5627,4.5451,0,0,0,0.87268726,-1.745364367,178,2.293
20500,-713466.4513,-4045434.552,4863018.569,-6.0228,6.5627,4.5451,0,0,0,0,0,0,0.872687371,-1.745364539,178,-0.785398163,0,0,0,-0.000002,0.000001,0,0,0,-713466.4513,-4045434.552,4863018.569,-6.0228,6.5627,4.5451,0,0,0,0.872687371,-1.745364539,178,2.293
20600,-713467.0536,-4045433.896,4863019.023,-6.0228,6.5627,4.5451,0,0,0,0,0,0,0.872687482,-1.745364711,178,-0.785398163,0,0,0,-0.000002,0.000001,0,0,0,-713467.0536,-4045433.896,4863019.023,-6.0228,6.5627,4.5451,0,0,0,0.872687482,-1.745364711,178,2.293
20700,-713467.6559,-4045433.24,4863019.478,-6.0228,6.5627,4.5451,0,0,0,0,0,0,0.872687593,-1.745364883,178,-0.785398163,0,0,0,-0.000002,0.000001,0,0,0,-713467.6559,-4045433.24,4863019.478,-6.0228,6.5627,4.5451,0,0,0,0.872687593,-1.745364883,178,2.293
20800,-713468.2582,-4045432.583,4863019.932,-6.0228,6.5627,4.5451,0,0,0,0,0,0,0.872687704,-1.745365056,178,-0.785398163,0,0,0,-0.000002,0.000001,0,0,0,-713468.2582,-4045432.583,4863019.932,-6.0228,6.5627,4.5451,0,0,0,0.872687704,-1.745365056,178,2.293
20900,-713468.8604,-4045431.927,4863020.387,-6.0228,6.5627,4.5451,0,0,0,0,0,0,0.872687815,-1.745365228,178,-0.785398163,0,0,0,-0.000002,0.000001,0,0,0,-713468.8604,-4045431.927,4863020.387,-6.0228,6.5627,4.5451,0,0,0,0.872687815,-1.745365228,178,2.293
21000,-713469.4627,-4045431.271,4863020.841,-6.0228,6.5627,4.5451,0,0,0,0,0,0,0.872687926,-1.7453654,178,-0.785398163,0,0,0,-0.000002,0.000001,0,0,0,-713469.4627,-4045431.271,4863020.841,-6.0228,6.5627,4.5451,0,0,0,0.872687926,-1.7453654,178,2.293
21100,-713470.065,-4045430.615,4863021.296,-6.0228,6.5627,4.5451,0,0,0,0,0,0,0.872688037,-1.745365572,178,-0.785398163,0,0,0,-0.000002,0.000001,0,0,0,-713470.065,-4045430.615,4863021.296,-6.0228,6.5627,4.5451,0,0,0,0.872688037,-1.745365572,178,2.293
21200,-713470.6673,-4045429.958,4863021.75,-6.0228,6.5627,4.5451,0,0,0,0,0,0,0.872688148,-1.745365744,178,-0.785398163,0,0,0,-0.000002,0.000001,0,0,0,-713470.6673,-4045429.958,4863021.75,-6.0228,6.5627,4.5451,0,0,0,0.872688148,-1.745365744,178,2.293
21300,-713471.2696,-4045429.302,4863022.205,-6.0228,6.5627,4.5451,0,0,0,0,0,0,0.872688259,-1.745365916,178,-0.785398163,0,0,0,-0.000002,0.000001,0,0,0,-713471.2696,-4045429.302,4863022.205,-6.0228,6.5627,4.5451,0,0,0,0.872688259,-1.745365916,178,2.293
21400,-713471.8718,-4045428.646,4863022.659,-6.0228,6.5627,4.5451,0,0,0,0,0,0,0.87268837,-1.745366088,178,-0.785398163,0,0,0,-0.000002,0.000001,0,0,0,-713471.8718,-4045428.646,4863022.659,-6.0228,6.5627,4.5451,0,0,0,0.87268837,-1.745366088,178,2.293
21500,-713472.4741,-4045427.99,4863023.114,-6.0228,6.5627,4.5451,0,0,0,0,0,0,0.872688481,-1.74536626,178,-0.785398163,0,0,0,-0.000002,0.000001,0,0,0,-713472.4741,-4045427.99,4863023.114,-6.0228,6.5627,4.5451,0,0,0,0.872688481,-1.74536626,178,2.293
21600,-713473.0764,-4045427.333,4863023.568,-6.0228,6.5627,4.5451,0,0,0,0,0,0,0.872688591,-1.745366433,178,-0.785398163,0,0,0,-0.000002,0.000001,0,0,0,-713473.0764,-4045427.333,4863023.568,-6.0228,6.5627,4.5451,0,0,0,0.872688591,-1.745366433,178,2.293
21700,-713473.6787,-4045426.677,4863024.023,-6.0228,6.5627,4.5451,0,0,0,0,0,0,0.872688702,-1.745366605,178,-0.785398163,0,0,0,-0.000002,0.000001,0,0,0,-713473.6787,-4045426.677,4863024.023,-6.0228,6.5627,4.5451,0,0,0,0.872688702,-1.745366605,178,2.293
21800,-713474.2809,-4045426.021,4863024.477,-6.0228,6.5627,4.5451,0,0,0,0,0,0,0.872688813,-1.745366777,178,-0.785398163,0,0,0,-0.000002,0.000001,0,0,0,-713474.2809,-4045426.021,4863024.477,-6.0228,6.5627,4.5451,0,0,0,0.872688813,-1.745366777,178,2.293
21900,-713474.8832,-4045425.364,4863024.932,-6.0228,6.5627,4.5451,0,0,0,0,0,0,0.872688924,-1.745366949,178,-0.785398163,0,0,0,-0.000002,0.000001,0,0,0,-713474.8832,-4045425.364,4863024.932,-6.0228,6.5627,4.5451,0,0,0,0.872688924,-1.745366949,178,2.293
22000,-713475.4855,-4045424.708,4863025.386,-6.0228,6.5627,4.5451,0,0,0,0,0,0,0.872689035,-1.745367121,178,-0.785398163,0,0,0,-0.000002,0.000001,0,0,0,-713475.4855,-4045424.708,4863025.386,-6.0228,6.5627,4.5451,0,0,0,0.872689035,-1.745367121,178,2.293
22100,-713476.0878,-4045424.052,4863025.841,-6.0228,6.5627,4.5451,0,0,0,0,0,0,0.872689146,-1.745367293,178,-0.785398163,0,0,0,-0.000002,0.000001,0,0,0,-713476.0878,-4045424.052,4863025.841,-6.0228,6.5627,4.5451,0,0,0,0.872689146,-1.745367293,178,2.293
22200,-713476.69,-4045423.396,4863026.296,-6.0228,6.5627,4.5451,0,0,0,0,0,0,0.872689257,-1.745367465,178,-0.785398163,0,0,0,-0.000002,0.000001,0,0,0,-713476.69,-4045423.396,4863026.296,-6.0228,6.5627,4.5451,0,0,0,0.872689257,-1.745367465,178,2.293
22300,-713477.2923,-4045422.739,4863026.75,-6.0228,6.5627,4.5451,0,0,0,0,0,0,0.872689368,-1.745367638,178,-0.785398163,0,0,0,-0.000002,0.000001,0,0,0,-713477.2923,-4045422.739,4863026.75,-6.0228,6.5627,4.5451,0,0,0,0.872689368,-1.745367638,178,2.293
22400,-713477.8946,-4045422.083,4863027.205,-6.0228,6.5627,4.5451,0,0,0,0,0,0,0.872689479,-1.74536781,178,-0.785398163,0,0,0,-0.000002,0.000001,0,0,0,-713477.8946,-4045422.083,4863027.205,-6.0228,6.5627,4.5451,0,0,0,0.872689479,-1.74536781,178,2.293
22500,-713478.4969,-4045421.427,4863027.659,-6.0228,6.5627,4.5451,0,0,0,0,0,0,0.87268959,-1.745367982,178,-0.785398163,0,0,0,-0.000002,0.000001,0,0,0,-713478.4969,-4045421.427,4863027.659,-6.0228,6.5627,4.5451,0,0,0,0.87268959,-1.745367982,178,2.293
22600,-713479.0991,-4045420.771,4863028.114,-6.0228,6.5627,4.5451,0,0,0,0,0,0,0.872689701,-1.745368154,178,-0.785398163,0,0,0,-0.000002,0.000001,0,0,0,-713479.0991,-4045420.771,4863028.114,-6.0228,6.5627,4.5451,0,0,0,0.872689701,-1.745368154,178,2.293
22700,-713479.7014,-4045420.114,4863028.568,-6.0228,6.5627,4.5451,0,0,0,0,0,0,0.872689812,-1.745368326,178,-0.785398163,0,0,0,-0.000002,0.000001,0,0,0,-713479.7014,-4045420.114,4863028.568,-6.0228,6.5627,4.5451,0,0,0,0.872689812,-1.745368326,178,2.293
22800,-713480.3037,-4045419.458,4863029.023,-6.0228,6.5627,4.5451,0,0,0,0,0,0,0.872689923,-1.745368498,178,-0.785398163,0,0,0,-0.000002,0.000001,0,0,0,-713480.3037,-4045419.458,4863029.023,-6.0228,6.5627,4.5451,0,0,0,0.872689923,-1.745368498,178,2.293
22900,-713480.906,-4045418.802,4863029.477,-6.0228,6.5627,4.5451,0,0,0,0,0,0,0.872690034,-1.74536867,178,-0.785398163,0,0,0,-0.000002,0.000001,0,0,0,-713480.906,-4045418.802,4863029.477,-6.0228,6.5627,4.5451,0,0,0,0.872690034,-1.74536867,178,2.293
23000,-713481.5083,-4045418.146,4863029.932,-6.0228,6.5627,4.5451,0,0,0,0,0,0,0.872690145,-1.745368843,178,-0.785398163,0,0,0,-0.000002,0.000001,0,0,0,-713481.5083,-4045418.146,4863029.932,-6.0228,6.5627,4.5451,0,0,0,0.872690145,-1.745368843,178,2.293
23100,-713482.1105,-4045417.489,4863030.386,-6.0228,6.5627,4.5451,0,0,0,0,0,0,0.872690256,-1.745369015,178,-0.785398163,0,0,0,-0.000002,0.000001,0,0,0,-713482.1105,-4045417.489,4863030.386,-6.0228,6.5627,4.5451,0,0,0,0.872690256,-1.745369015,178,2.293
23200,-713482.7128,-4045416.833,4863030.841,-6.0228,6.5627,4.5451,0,0,0,0,0,0,0.872690367,-1.745369187,178,-0.785398163,0,0,0,-0.000002,0.000001,0,0,0,-713482.7128,-4045416.833,4863030.841,-6.0228,6.5627,4.5451,0,0,0,0.872690367,-1.745369187,178,2.293
23300,-713483.3151,-4045416.177,4863031.295,-6.0227,6.5627,4.5451,0,0,0,0,0,0,0.872690478,-1.745369359,178,-0.785398163,0,0,0,-0.000002,0.000001,0,0,0,-713483.3151,-4045416.177,4863031.295,-6.0227,6.5627,4.5451,0,0,0,0.872690478,-1.745369359,178,2.293
23400,-713483.9174,-4045415.52,4863031.75,-6.0227,6.5627,4.5451,0,0,0,0,0,0,0.872690589,-1.745369531,178,-0.785398163,0,0,0,-0.000002,0.000001,0,0,0,-713483.9174,-4045415.52,4863031.75,-6.0227,6.5627,4.5451,0,0,0,0.872690589,-1.745369531,178,2.293
23500,-713484.5196,-4045414.864,4863032.204,-6.0227,6.5627,4.5451,0,0,0,0,0,0,0.8726907,-1.745369703,178,-0.785398163,0,0,0,-0.000002,0.000001,0,0,0,-713484.5196,-4045414.864,4863032.204,-6.0227,6.5627,4.5451,0,0,0,0.8726907,-1.745369703,178,2.293
23600,-713485.1219,-4045414.208,4863032.659,-6.0227,6.5627,4.5451,0,0,0,0,0,0,0.87269081,-1.745369875,178,-0.785398163,0,0,0,-0.000002,0.000001,0,0,0,-713485.1219,-4045414.208,4863032.659,-6.0227,6.5627,4.5451,0,0,0,0.87269081,-1.745369875,178,2.293
23700,-713485.7242,-4045413.552,4863033.113,-6.0227,6.5627,4.5451,0,0,0,0,0,0,0.872690921,-1.745370047,178,-0.785398163,0,0,0,-0.000002,0.000001,0,0,0,-713485.7242,-4045413.552,4863033.113,-6.0227,6.5627,4.5451,0,0,0,0.872690921,-1.745370047,178,2.293
23800,-713486.3264,-4045412.895,4863033.568,-6.0227,6.5627,4.5451,0,0,0,0,0,0,0.872691032,-1.74537022,178,-0.785398163,0,0,0,-0.000002,0.000001,0,0,0,-713486.3264,-4045412.895,4863033.568,-6.0227,6.5627,4.5451,0,0,0,0.872691032,-1.74537022,178,2.293
23900,-713486.9287,-4045412.239,4863034.022,-6.0227,6.5627,4.5451,0,0,0,0,0,0,0.872691143,-1.745370392,178,-0.785398163,0,0,0,-0.000002,0.000001,0,0,0,-713486.9287,-4045412.239,4863034.022,-6.0227,6.5627,4.5451,0,0,0,0.872691143,-1.745370392,178,2.293
24000,-713487.531,-4045411.583,4863034.477,-6.0227,6.5627,4.5451,0,0,0,0,0,0,0.872691254,-1.745370564,178,-0.785398163,0,0,0,-0.000002,0.000001,0,0,0,-713487.531,-4045411.583,4863034.477,-6.0227,6.5627,4.5451,0,0,0,0.872691254,-1.745370564,178,2.293
24100,-713488.1333,-4045410.927,4863034.931,-6.0227,6.5627,4.545,0,0,0,0,0,0,0.872691365,-1.745370736,178,-0.785398163,0,0,0,-0.000002,0.000001,0,0,0,-713488.1333,-4045410.927,4863034.931,-6.0227,6.5627,4.545,0,0,0,0.872691365,-1.745370736,178,2.293
24200,-713488.7355,-4045410.27,4863035.386,-6.0227,6.5627,4.545,0,0,0,0,0,0,0.872691476,-1.745370908,178,-0.785398163,0,0,0,-0.000002,0.000001,0,0,0,-713488.7355,-4045410.27,4863035.386,-6.0227,6.5627,4.545,0,0,0,0.872691476,-1.745370908,178,2.293
24300,-713489.3378,-4045409.614,4863035.84,-6.0227,6.5627,4.545,0,0,0,0,0,0,0.872691587,-1.74537108,178,-0.785398163,0,0,0,-0.000002,0.000001,0,0,0,-713489.3378,-4045409.614,4863035.84,-6.0227,6.5627,4.545,0,0,0,0.872691587,-1.74537108,178,2.293
24400,-713489.9401,-4045408.958,4863036.295,-6.0227,6.5627,4.545,0,0,0,0,0,0,0.872691698,-1.745371252,178,-0.785398163,0,0,0,-0.000002,0.000001,0,0,0,-713489.9401,-4045408.958,4863036.295,-6.0227,6.5627,4.545,0,0,0,0.872691698,-1.745371252,178,2.293
24500,-713490.5424,-4045408.301,4863036.749,-6.0227,6.5627,4.545,0,0,0,0,0,0,0.872691809,-1.745371425,178,-0.785398163,0,0,0,-0.000002,0.000001,0,0,0,-713490.5424,-4045408.301,4863036.749,-6.0227,6.5627,4.545,0,0,0,0.872691809,-1.745371425,178,2.293
24600,-713491.1446,-4045407.645,4863037.204,-6.0227,6.5627,4.545,0,0,0,0,0,0,0.87269192,-1.745371597,178,-0.785398163,0,0,0,-0.000002,0.000001,0,0,0,-713491.1446,-4045407.645,4863037.204,-6.0227,6.5627,4.545,0,0,0,0.87269192,-1.745371597,178,2.293
24700,-713491.7469,-4045406.989,4863037.658,-6.0227,6.5627,4.545,0,0,0,0,0,0,0.872692031,-1.745371769,178,-0.785398163,0,0,0,-0.000002,0.000001,0,0,0,-713491.7469,-4045406.989,4863037.658,-6.0227,6.5627,4.545,0,0,0,0.872692031,-1.745371769,178,2.293
24800,-713492.3492,-4045406.333,4863038.113,-6.0227,6.5627,4.545,0,0,0,0,0,0,0.872692142,-1.745371941,178,-0.785398163,0,0,0,-0.000002,0.000001,0,0,0,-713492.3492,-4045406.333,4863038.113,-6.0227,6.5627,4.545,0,0,0,0.872692142,-1.745371941,178,2.293
24900,-713492.9515,-4045405.676,4863038.567,-6.0227,6.5627,4.545,0,0,0,0,0,0,0.872692253,-1.745372113,178,-0.785398163,0,0,0,-0.000002,0.000001,0,0,0,-713492.9515,-4045405.676,4863038.567,-6.0227,6.5627,4.545,0,0,0,0.872692253,-1.745372113,178,2.293
25000,-713493.5537,-4045405.02,4863039.022,-6.0227,6.5627,4.545,0,0,0,0,0,0,0.872692364,-1.745372285,178,-0.785398163,0,0,0,-0.000002,0.000001,0,0,0,-713493.5537,-4045405.02,4863039.022,-6.0227,6.5627,4.545,0,0,0,0.872692364,-1.745372285,178,2.293
25100,-713494.156,-4045404.364,4863039.476,-6.0227,6.5627,4.545,0,0,0,0,0,0,0.872692475,-1.745372457,178,-0.785398163,0,0,0,-0.000002,0.000001,0,0,0,-713494.156,-4045404.364,4863039.476,-6.0227,6.5627,4.545,0,0,0,0.872692475,-1.745372457,178,2.293
25200,-713494.7583,-4045403.708,4863039.931,-6.0227,6.5627,4.545,0,0,0,0,0,0,0.872692586,-1.74537263,178,-0.785398163,0,0,0,-0.000002,0.000001,0,0,0,-713494.7583,-4045403.708,4863039.931,-6.0227,6.5627,4.545,0,0,0,0.872692586,-1.74537263,178,2.293
25300,-713495.3606,-4045403.051,4863040.385,-6.0227,6.5627,4.545,0,0,0,0,0,0,0.872692697,-1.745372802,178,-0.785398163,0,0,0,-0.000002,0.000001,0,0,0,-713495.3606,-4045403.051,4863040.385,-6.0227,6.5627,4.545,0,0,0,0.872692697,-1.745372802,178,2.293
25400,-713495.9628,-4045402.395,4863040.84,-6.0227,6.5627,4.545,0,0,0,0,0,0,0.872692808,-1.745372974,178,-0.785398163,0,0,0,-0.000002,0.000001,0,0,0,-713495.9628,-4045402.395,4863040.84,-6.0227,6.5627,4.545,0,0,0,0.872692808,-1.745372974,178,2.293
25500,-713496.5651,-4045401.739,4863041.294,-6.0227,6.5627,4.545,0,0,0,0,0,0,0.872692919,-1.745373146,178,-0.785398163,0,0,0,-0.000002,0.000001,0,0,0,-713496.5651,-4045401.739,4863041.294,-6.0227,6.5627,4.545,0,0,0,0.872692919,-1.745373146,178,2.293
25600,-713497.1674,-4045401.082,4863041.749,-6.0227,6.5627,4.545,0,0,0,0,0,0,0.87269303,-1.745373318,178,-0.785398163,0,0,0,-0.000002,0.000001,0,0,0,-713497.1674,-4045401.082,4863041.749,-6.0227,6.5627,4.545,0,0,0,0.87269303,-1.745373318,178,2.293
25700,-713497.7696,-4045400.426,4863042.203,-6.0227,6.5627,4.545,0,0,0,0,0,0,0.87269314,-1.74537349,178,-0.785398163,0,0,0,-0.000002,0.000001,0,0,0,-713497.7696,-4045400.426,4863042.203,-6.0227,6.5627,4.545,0,0,0,0.87269314,-1.74537349,178,2.293
25800,-713498.3719,-4045399.77,4863042.658,-6.0227,6.5627,4.545,0,0,0,0,0,0,0.872693251,-1.745373662,178,-0.785398163,0,0,0,-0.000002,0.000001,0,0,0,-713498.3719,-4045399.77,4863042.658,-6.0227,6.5627,4.545,0,0,0,0.872693251,-1.745373662,178,2.293
25900,-713498.9742,-4045399.114,4863043.112,-6.0227,6.5627,4.545,0,0,0,0,0,0,0.872693362,-1.745373834,178,-0.785398163,0,0,0,-0.000002,0.000001,0,0,0,-713498.9742,-4045399.114,4863043.112,-6.0227,6.5627,4.545,0,0,0,0.872693362,-1.745373834,178,2.293
26000,-713499.5765,-4045398.457,4863043.567,-6.0227,6.5627,4.545,0,0,0,0,0,0,0.872693473,-1.745374007,178,-0.785398163,0,0,0,-0.000002,0.000001,0,0,0,-713499.5765,-4045398.457,4863043.567,-6.0227,6.5627,4.545,0,0,0,0.872693473,-1.745374007,178,2.293
26100,-713500.1787,-4045397.801,4863044.021,-6.0227,6.5627,4.545,0,0,0,0,0,0,0.872693584,-1.745374179,178,-0.785398163,0,0,0,-0.000002,0.000001,0,0,0,-713500.1787,-4045397.801,4863044.021,-6.0227,6.5627,4.545,0,0,0,0.872693584,-1.745374179,178,2.293
26200,-713500.781,-4045397.145,4863044.476,-6.0227,6.5627,4.545,0,0,0,0,0,0,0.872693695,-1.745374351,178,-0.785398163,0,0,0,-0.000002,0.000001,0,0,0,-713500.781,-4045397.145,4863044.476,-6.0227,6.5627,4.545,0,0,0,0.872693695,-1.745374351,178,2.293
26300,-713501.3833,-4045396.489,4863044.93,-6.0227,6.5627,4.545,0,0,0,0,0,0,0.872693806,-1.745374523,178,-0.785398163,0,0,0,-0.000002,0.000001,0,0,0,-713501.3833,-4045396.489,4863044.93,-6.0227,6.5627,4.545,0,0,0,0.872693806,-1.745374523,178,2.293
26400,-713501.9855,-4045395.832,4863045.385,-6.0227,6.5627,4.545,0,0,0,0,0,0,0.872693917,-1.745374695,178,-0.785398163,0,0,0,-0.000002,0.000001,0,0,0,-713501.9855,-4045395.832,4863045.385,-6.0227,6.5627,4.545,0,0,0,0.872693917,-1.745374695,178,2.293
26500,-713502.5878,-4045395.176,4863045.839,-6.0227,6.5627,4.545,0,0,0,0,0,0,0.872694028,-1.745374867,178,-0.785398163,0,0,0,-0.000002,0.000001,0,0,0,-713502.5878,-4045395.176,4863045.839,-6.0227,6.5627,4.545,0,0,0,0.872694028,-1.745374867,178,2.293
26600,-713503.1901,-4045394.52,4863046.294,-6.0227,6.5627,4.545,0,0,0,0,0,0,0.872694139,-1.745375039,178,-0.785398163,0,0,0,-0.000002,0.000001,0,0,0,-713503.1901,-4045394.52,4863046.294,-6.0227,6.5627,4.545,0,0,0,0.872694139,-1.745375039,178,2.293
26700,-713503.7924,-4045393.863,4863046.748,-6.0227,6.5627,4.545,0,0,0,0,0,0,0.87269425,-1.745375212,178,-0.785398163,0,0,0,-0.000002,0.000001,0,0,0,-713503.7924,-4045393.863,4863046.748,-6.0227,6.5627,4.545,0,0,0,0.87269425,-1.745375212,178,2.293
26800,-713504.3946,-4045393.207,4863047.203,-6.0227,6.5627,4.545,0,0,0,0,0,0,0.872694361,-1.745375384,178,-0.785398163,0,0,0,-0.000002,0.000001,0,0,0,-713504.3946,-4045393.207,4863047.203,-6.0227,6.5627,4.545,0,0,0,0.872694361,-1.745375384,178,2.293
26900,-713504.9969,-4045392.551,4863047.657,-6.0227,6.5628,4.545,0,0,0,0,0,0,0.872694472,-1.745375556,178,-0.785398163,0,0,0,-0.000002,0.000001,0,0,0,-713504.9969,-4045392.551,4863047.657,-6.0227,6.5628,4.545,0,0,0,0.872694472,-1.745375556,178,2.293
27000,-713505.5992,-4045391.895,4863048.112,-6.0227,6.5628,4.545,0,0,0,0,0,0,0.872694583,-1.745375728,178,-0.785398163,0,0,0,-0.000002,0.000001,0,0,0,-713505.5992,-4045391.895,4863048.112,-6.0227,6.5628,4.545,0,0,0,0.872694583,-1.745375728,178,2.293
27100,-713506.2014,-4045391.238,4863048.566,-6.0227,6.5628,4.545,0,0,0,0,0,0,0.872694694,-1.7453759,178,-0.785398163,0,0,0,-0.000002,0.000001,0,0,0,-713506.2014,-4045391.238,4863048.566,-6.0227,6.5628,4.545,0,0,0,0.872694694,-1.7453759,178,2.293
27200,-713506.8037,-4045390.582,4863049.021,-6.0227,6.5628,4.545,0,0,0,0,0,0,0.872694805,-1.745376072,178,-0.785398163,0,0,0,-0.000002,0.000001,0,0,0,-713506.8037,-4045390.582,4863049.021,-6.0227,6.5628,4.545,0,0,0,0.872694805,-1.745376072,178,2.293
27300,-713507.406,-4045389.926,4863049.475,-6.0227,6.5628,4.545,0,0,0,0,0,0,0.872694916,-1.745376244,178,-0.785398163,0,0,0,-0.000002,0.000001,0,0,0,-713507.406,-4045389.926,4863049.475,-6.0227,6.5628,4.545,0,0,0,0.872694916,-1.745376244,178,2.293
27400,-713508.0082,-4045389.27,4863049.93,-6.0227,6.5628,4.545,0,0,0,0,0,0,0.872695027,-1.745376417,178,-0.785398163,0,0,0,-0.000002,0.000001,0,0,0,-713508.0082,-4045389.27,4863049.93,-6.0227,6.5628,4.545,0,0,0,0.872695027,-1.745376417,178,2.293
27500,-713508.6105,-4045388.613,4863050.384,-6.0227,6.5628,4.545,0,0,0,0,0,0,0.872695138,-1.745376589,178,-0.785398163,0,0,0,-0.000002,0.000001,0,0,0,-713508.6105,-4045388.613,4863050.384,-6.0227,6.5628,4.545,0,0,0,0.872695138,-1.745376589,178,2.293
27600,-713509.2128,-4045387.957,4863050.839,-6.0227,6.5628,4.545,0,0,0,0,0,0,0.872695249,-1.745376761,178,-0.785398163,0,0,0,-0.000002,0.000001,0,0,0,-713509.2128,-4045387.957,4863050.839,-6.0227,6.5628,4.545,0,0,0,0.872695249,-1.745376761,178,2.293
27700,-713509.8151,-4045387.301,4863051.293,-6.0227,6.5628,4.545,0,0,0,0,0,0,0.872695359,-1.745376933,178,-0.785398163,0,0,0,-0.000002,0.000001,0,0,0,-713509.8151,-4045387.301,4863051.293,-6.0227,6.5628,4.545,0,0,0,0.872695359,-1.745376933,178,2.293
27800,-713510.4173,-4045386.644,4863051.748,-6.0227,6.5628,4.545,0,0,0,0,0,0,0.87269547,-1.745377105,178,-0.785398163,0,0,0,-0.000002,0.000001,0,0,0,-713510.4173,-4045386.644,4863051.748,-6.0227,6.5628,4.545,0,0,0,0.87269547,-1.745377105,178,2.293
27900,-713511.0196,-4045385.988,4863052.202,-6.0227,6.5628,4.545,0,0,0,0,0,0,0.872695581,-1.745377277,178,-0.785398163,0,0,0,-0.000002,0.000001,0,0,0,-713511.0196,-4045385.988,4863052.202,-6.0227,6.5628,4.545,0,0,0,0.872695581,-1.745377277,178,2.293
28000,-713511.6219,-4045385.332,4863052.657,-6.0227,6.5628,4.545,0,0,0,0,0,0,0.872695692,-1.745377449,178,-0.785398163,0,0,0,-0.000002,0.000001,0,0,0,-713511.6219,-4045385.332,4863052.657,-6.0227,6.5628,4.545,0,0,0,0.872695692,-1.745377449,178,2.293
28100,-713512.2241,-4045384.676,4863053.111,-6.0227,6.5628,4.545,0,0,0,0,0,0,0.872695803,-1.745377621,178,-0.785398163,0,0,0,-0.000002,0.000001,0,0,0,-713512.2241,-4045384.676,4863053.111,-6.0227,6.5628,4.545,0,0,0,0.872695803,-1.745377621,178,2.293
28200,-713512.8264,-4045384.019,4863053.566,-6.0227,6.5628,4.545,0,0,0,0,0,0,0.872695914,-1.745377794,178,-0.785398163,0,0,0,-0.000002,0.000001,0,0,0,-713512.8264,-4045384.019,4863053.566,-6.0227,6.5628,4.545,0,0,0,0.872695914,-1.745377794,178,2.292
28300,-713513.4287,-4045383.363,4863054.02,-6.0227,6.5628,4.545,0,0,0,0,0,0,0.872696025,-1.745377966,178,-0.785398163,0,0,0,-0.000002,0.000001,0,0,0,-713513.4287,-4045383.363,4863054.02,-6.0227,6.5628,4.545,0,0,0,0.872696025,-1.745377966,178,2.292
28400,-713514.0309,-4045382.707,4863054.475,-6.0227,6.5628,4.545,0,0,0,0,0,0,0.872696136,-1.745378138,178,-0.785398163,0,0,0,-0.000002,0.000001,0,0,0,-713514.0309,-4045382.707,4863054.475,-6.0227,6.5628,4.545,0,0,0,0.872696136,-1.745378138,178,2.292
28500,-713514.6332,-4045382.05,4863054.929,-6.0227,6.5628,4.545,0,0,0,0,0,0,0.872696247,-1.74537831,178,-0.785398163,0,0,0,-0.000002,0.000001,0,0,0,-713514.6332,-4045382.05,4863054.929,-6.0227,6.5628,4.545,0,0,0,0.872696247,-1.74537831,178,2.292
28600,-713515.2355,-4045381.394,4863055.384,-6.0227,6.5628,4.545,0,0,0,0,0,0,0.872696358,-1.745378482,178,-0.785398163,0,0,0,-0.000002,0.000001,0,0,0,-713515.2355,-4045381.394,4863055.384,-6.0227,6.5628,4.545,0,0,0,0.872696358,-1.745378482,178,2.292
28700,-713515.8377,-4045380.738,4863055.838,-6.0227,6.5628,4.545,0,0,0,0,0,0,0.872696469,-1.745378654,178,-0.785398163,0,0,0,-0.000002,0.000001,0,0,0,-713515.8377,-4045380.738,4863055.838,-6.0227,6.5628,4.545,0,0,0,0.872696469,-1.745378654,178,2.292
28800,-713516.44,-4045380.082,4863056.293,-6.0227,6.5628,4.545,0,0,0,0,0,0,0.87269658,-1.745378826,178,-0.785398163,0,0,0,-0.000002,0.000001,0,0,0,-713516.44,-4045380.082,4863056.293,-6.0227,6.5628,4.545,0,0,0,0.87269658,-1.745378826,178,2.292
28900,-713517.0423,-4045379.425,4863056.747,-6.0227,6.5628,4.545,0,0,0,0,0,0,0.872696691,-1.745378999,178,-0.785398163,0,0,0,-0.000002,0.000001,0,0,0,-713517.0423,-4045379.425,4863056.747,-6.0227,6.5628,4.545,0,0,0,0.872696691,-1.745378999,178,2.292
29000,-713517.6446,-4045378.769,4863057.202,-6.0227,6.5628,4.545,0,0,0,0,0,0,0.872696802,-1.745379171,178,-0.785398163,0,0,0,-0.000002,0.000001,0,0,0,-713517.6446,-4045378.769,4863057.202,-6.0227,6.5628,4.545,0,0,0,0.872696802,-1.745379171,178,2.292
29100,-713518.2468,-4045378.113,4863057.656,-6.0227,6.5628,4.545,0,0,0,0,0,0,0.872696913,-1.745379343,178,-0.785398163,0,0,0,-0.000002,0.000001,0,0,0,-713518.2468,-4045378.113,4863057.656,-6.0227,6.5628,4.545,0,0,0,0.872696913,-1.745379343,178,2.292
29200,-713518.8491,-4045377.457,4863058.111,-6.0227,6.5628,4.545,0,0,0,0,0,0,0.872697024,-1.745379515,178,-0.785398163,0,0,0,-0.000002,0.000001,0,0,0,-713518.8491,-4045377.457,4863058.111,-6.0227,6.5628,4.545,0,0,0,0.872697024,-1.745379515,178,2.292
29300,-713519.4514,-4045376.8,4863058.565,-6.0227,6.5628,4.545,0,0,0,0,0,0,0.872697135,-1.745379687,178,-0.785398163,0,0,0,-0.000002,0.000001,0,0,0,-713519.4514,-4045376.8,4863058.565,-6.0227,6.5628,4.545,0,0,0,0.872697135,-1.745379687,178,2.292
29400,-713520.0536,-4045376.144,4863059.02,-6.0227,6.5628,4.545,0,0,0,0,0,0,0.872697246,-1.745379859,178,-0.785398163,0,0,0,-0.000002,0.000001,0,0,0,-713520.0536,-4045376.144,4863059.02,-6.0227,6.5628,4.545,0,0,0,0.872697246,-1.745379859,178,2.292
29500,-713520.6559,-4045375.488,4863059.474,-6.0227,6.5628,4.545,0,0,0,0,0,0,0.872697357,-1.745380031,178,-0.785398163,0,0,0,-0.000002,0.000001,0,0,0,-713520.6559,-4045375.488,4863059.474,-6.0227,6.5628,4.545,0,0,0,0.872697357,-1.745380031,178,2.292
29600,-713521.2582,-4045374.831,4863059.929,-6.0227,6.5628,4.545,0,0,0,0,0,0,0.872697468,-1.745380204,178,-0.785398163,0,0,0,-0.000002,0.000001,0,0,0,-713521.2582,-4045374.831,4863059.929,-6.0227,6.5628,4.545,0,0,0,0.872697468,-1.745380204,178,2.292
29700,-713521.8604,-4045374.175,4863060.383,-6.0227,6.5628,4.545,0,0,0,0,0,0,0.872697578,-1.745380376,178,-0.785398163,0,0,0,-0.000002,0.000001,0,0,0,-713521.8604,-4045374.175,4863060.383,-6.0227,6.5628,4.545,0,0,0,0.872697578,-1.745380376,178,2.292
29800,-713522.4627,-4045373.519,4863060.838,-6.0227,6.5628,4.545,0,0,0,0,0,0,0.872697689,-1.745380548,178,-0.785398163,0,0,0,-0.000002,0.000001,0,0,0,-713522.4627,-4045373.519,4863060.838,-6.0227,6.5628,4.545,0,0,0,0.872697689,-1.745380548,178,2.292
29900,-713523.065,-4045372.863,4863061.292,-6.0227,6.5628,4.545,0,0,0,0,0,0,0.8726978,-1.74538072,178,-0.785398163,0,0,0,-0.000002,0.000001,0,0,0,-713523.065,-4045372.863,4863061.292,-6.0227,6.5628,4.545,0,0,0,0.8726978,-1.74538072,178,2.292
30000,-713523.6672,-4045372.206,4863061.747,-6.0227,6.5628,4.545,0,0,0,0,0,0,0.872697911,-1.745380892,178,-0.785398163,0,0,0,-0.000002,0.000001,0,0,0,-713523.6672,-4045372.206,4863061.747,-6.0227,6.5628,4.545,0,0,0,0.872697911,-1.745380892,178,2.292
30100,-713524.2695,-4045371.55,4863062.201,-6.0227,6.5628,4.545,0,0,0,0,0,0,0.872698022,-1.745381064,178,-0.785398163,0,0,0,-0.000002,0.000001,0,0,0,-713524.2695,-4045371.55,4863062.201,-6.0227,6.5628,4.545,0,0,0,0.872698022,-1.745381064,178,2.292
30200,-713524.8718,-4045370.894,4863062.656,-6.0227,6.5628,4.545,0,0,0,0,0,0,0.872698133,-1.745381236,178,-0.785398163,0,0,0,-0.000002,0.000001,0,0,0,-713524.8718,-4045370.894,4863062.656,-6.0227,6.5628,4.545,0,0,0,0.872698133,-1.745381236,178,2.292
30300,-713525.474,-4045370.237,4863063.11,-6.0227,6.5628,4.545,0,0,0,0,0,0,0.872698244,-1.745381408,178,-0.785398163,0,0,0,-0.000002,0.000001,0,0,0,-713525.474,-4045370.237,4863063.11,-6.0227,6.5628,4.545,0,0,0,0.872698244,-1.745381408,178,2.292
30400,-713526.0763,-4045369.581,4863063.565,-6.0227,6.5628,4.545,0,0,0,0,0,0,0.872698355,-1.745381581,178,-0.785398163,0,0,0,-0.000002,0.000001,0,0,0,-713526.0763,-4045369.581,4863063.565,-6.0227,6.5628,4.545,0,0,0,0.872698355,-1.745381581,178,2.292
30500,-713526.6786,-4045368.925,4863064.019,-6.0227,6.5628,4.545,0,0,0,0,0,0,0.872698466,-1.745381753,178,-0.785398163,0,0,0,-0.000002,0.000001,0,0,0,-713526.6786,-4045368.925,4863064.019,-6.0227,6.5628,4.545,0,0,0,0.872698466,-1.745381753,178,2.292
30600,-713527.2808,-4045368.269,4863064.474,-6.0227,6.5628,4.545,0,0,0,0,0,0,0.872698577,-1.745381925,178,-0.785398163,0,0,0,-0.000002,0.000001,0,0,0,-713527.2808,-4045368.269,4863064.474,-6.0227,6.5628,4.545,0,0,0,0.872698577,-1.745381925,178,2.292
30700,-713527.8831,-4045367.612,4863064.928,-6.0227,6.5628,4.545,0,0,0,0,0,0,0.872698688,-1.745382097,178,-0.785398163,0,0,0,-0.000002,0.000001,0,0,0,-713527.8831,-4045367.612,4863064.928,-6.0227,6.5628,4.545,0,0,0,0.872698688,-1.745382097,178,2.292
30800,-713528.4854,-4045366.956,4863065.383,-6.0227,6.5628,4.545,0,0,0,0,0,0,0.872698799,-1.745382269,178,-0.785398163,0,0,0,-0.000002,0.000001,0,0,0,-713528.4854,-4045366.956,4863065.383,-6.0227,6.5628,4.545,0,0,0,0.872698799,-1.745382269,178,2.292
30900,-713529.0876,-4045366.3,4863065.837,-6.0227,6.5628,4.545,0,0,0,0,0,0,0.87269891,-1.745382441,178,-0.785398163,0,0,0,-0.000002,0.000001,0,0,0,-713529.0876,-4045366.3,4863065.837,-6.0227,6.5628,4.545,0,0,0,0.87269891,-1.745382441,178,2.292
31000,-713529.6899,-4045365.644,4863066.292,-6.0227,6.5628,4.545,0,0,0,0,0,0,0.872699021,-1.745382613,178,-0.785398163,0,0,0,-0.000002,0.000001,0,0,0,-713529.6899,-4045365.644,4863066.292,-6.0227,6.5628,4.545,0,0,0,0.872699021,-1.745382613,178,2.292
31100,-713530.2922,-4045364.987,4863066.746,-6.0227,6.5628,4.545,0,0,0,0,0,0,0.872699132,-1.745382786,178,-0.785398163,0,0,0,-0.000002,0.000001,0,0,0,-713530.2922,-4045364.987,4863066.746,-6.0227,6.5628,4.545,0,0,0,0.872699132,-1.745382786,178,2.292
31200,-713530.8944,-4045364.331,4863067.201,-6.0227,6.5628,4.545,0,0,0,0,0,0,0.872699243,-1.745382958,178,-0.785398163,0,0,0,-0.000002,0.000001,0,0,0,-713530.8944,-4045364.331,4863067.201,-6.0227,6.5628,4.545,0,0,0,0.872699243,-1.745382958,178,2.292
31300,-713531.4967,-4045363.675,4863067.655,-6.0227,6.5628,4.545,0,0,0,0,0,0,0.872699354,-1.74538313,178,-0.785398163,0,0,0,-0.000002,0.000001,0,0,0,-713531.4967,-4045363.675,4863067.655,-6.0227,6.5628,4.545,0,0,0,0.872699354,-1.74538313,178,2.292
31400,-713532.0989,-4045363.018,4863068.11,-6.0227,6.5628,4.545,0,0,0,0,0,0,0.872699465,-1.745383302,178,-0.785398163,0,0,0,-0.000002,0.000001,0,0,0,-713532.0989,-4045363.018,4863068.11,-6.0227,6.5628,4.545,0,0,0,0.872699465,-1.745383302,178,2.292
31500,-713532.7012,-4045362.362,4863068.564,-6.0226,6.5628,4.545,0,0,0,0,0,0,0.872699576,-1.745383474,178,-0.785398163,0,0,0,-0.000002,0.000001,0,0,0,-713532.7012,-4045362.362,4863068.564,-6.0226,6.5628,4.545,0,0,0,0.872699576,-1.745383474,178,2.292
31600,-713533.3035,-4045361.706,4863069.019,-6.0226,6.5628,4.545,0,0,0,0,0,0,0.872699687,-1.745383646,178,-0.785398163,0,0,0,-0.000002,0.000001,0,0,0,-713533.3035,-4045361.706,4863069.019,-6.0226,6.5628,4.545,0,0,0,0.872699687,-1.745383646,178,2.292
31700,-713533.9057,-4045361.05,4863069.473,-6.0226,6.5628,4.545,0,0,0,0,0,0,0.872699798,-1.745383818,178,-0.785398163,0,0,0,-0.000002,0.000001,0,0,0,-713533.9057,-4045361.05,4863069.473,-6.0226,6.5628,4.545,0,0,0,0.872699798,-1.745383818,178,2.292
31800,-713534.508,-4045360.393,4863069.928,-6.0226,6.5628,4.545,0,0,0,0,0,0,0.872699908,-1.745383991,178,-0.785398163,0,0,0,-0.000002,0.000001,0,0,0,-713534.508,-4045360.393,4863069.928,-6.0226,6.5628,4.545,0,0,0,0.872699908,-1.745383991,178,2.292
31900,-713535.1103,-4045359.737,4863070.382,-6.0226,6.5628,4.545,0,0,0,0,0,0,0.872700019,-1.745384163,178,-0.785398163,0,0,0,-0.000002,0.000001,0,0,0,-713535.1103,-4045359.737,4863070.382,-6.0226,6.5628,4.545,0,0,0,0.872700019,-1.745384163,178,2.292
32000,-713535.7125,-4045359.081,4863070.837,-6.0226,6.5628,4.545,0,0,0,0,0,0,0.87270013,-1.745384335,178,-0.785398163,0,0,0,-0.000002,0.000001,0,0,0,-713535.7125,-4045359.081,4863070.837,-6.0226,6.5628,4.545,0,0,0,0.87270013,-1.745384335,178,2.292
32100,-713536.3148,-4045358.424,4863071.291,-6.0226,6.5628,4.545,0,0,0,0,0,0,0.872700241,-1.745384507,178,-0.785398163,0,0,0,-0.000002,0.000001,0,0,0,-713536.3148,-4045358.424,4863071.291,-6.0226,6.5628,4.545,0,0,0,0.872700241,-1.745384507,178,2.292
32200,-713536.9171,-4045357.768,4863071.746,-6.0226,6.5628,4.545,0,0,0,0,0,0,0.872700352,-1.745384679,178,-0.785398163,0,0,0,-0.000002,0.000001,0,0,0,-713536.9171,-4045357.768,4863071.746,-6.0226,6.5628,4.545,0,0,0,0.872700352,-1.745384679,178,2.292
32300,-713537.5193,-4045357.112,4863072.2,-6.0226,6.5628,4.545,0,0,0,0,0,0,0.872700463,-1.745384851,178,-0.785398163,0,0,0,-0.000002,0.000001,0,0,0,-713537.5193,-4045357.112,4863072.2,-6.0226,6.5628,4.545,0,0,0,0.872700463,-1.745384851,178,2.292
32400,-713538.1216,-4045356.456,4863072.655,-6.0226,6.5628,4.545,0,0,0,0,0,0,0.872700574,-1.745385023,178,-0.785398163,0,0,0,-0.000002,0.000001,0,0,0,-713538.1216,-4045356.456,4863072.655,-6.0226,6.5628,4.545,0,0,0,0.872700574,-1.745385023,178,2.292
32500,-713538.7239,-4045355.799,4863073.109,-6.0226,6.5628,4.545,0,0,0,0,0,0,0.872700685,-1.745385195,178,-0.785398163,0,0,0,-0.000002,0.000001,0,0,0,-713538.7239,-4045355.799,4863073.109,-6.0226,6.5628,4.545,0,0,0,0.872700685,-1.745385195,178,2.292
32600,-713539.3261,-4045355.143,4863073.564,-6.0226,6.5628,4.545,0,0,0,0,0,0,0.872700796,-1.745385368,178,-0.785398163,0,0,0,-0.000002,0.000001,0,0,0,-713539.3261,-4045355.143,4863073.564,-6.0226,6.5628,4.545,0,0,0,0.872700796,-1.745385368,178,2.292
32700,-713539.9284,-4045354.487,4863074.018,-6.0226,6.5628,4.545,0,0,0,0,0,0,0.872700907,-1.74538554,178,-0.785398163,0,0,0,-0.000002,0.000001,0,0,0,-713539.9284,-4045354.487,4863074.018,-6.0226,6.5628,4.545,0,0,0,0.872700907,-1.74538554,178,2.292
32800,-713540.5306,-4045353.83,4863074.473,-6.0226,6.5628,4.545,0,0,0,0,0,0,0.872701018,-1.745385712,178,-0.785398163,0,0,0,-0.000002,0.000001,0,0,0,-713540.5306,-4045353.83,4863074.473,-6.0226,6.5628,4.545,0,0,0,0.872701018,-1.745385712,178,2.292
32900,-713541.1329,-4045353.174,4863074.927,-6.0226,6.5628,4.545,0,0,0,0,0,0,0.872701129,-1.745385884,178,-0.785398163,0,0,0,-0.000002,0.000001,0,0,0,-713541.1329,-4045353.174,4863074.927,-6.0226,6.5628,4.545,0,0,0,0.872701129,-1.745385884,178,2.292
33000,-713541.7352,-4045352.518,4863075.382,-6.0226,6.5628,4.545,0,0,0,0,0,0,0.87270124,-1.745386056,178,-0.785398163,0,0,0,-0.000002,0.000001,0,0,0,-713541.7352,-4045352.518,4863075.382,-6.0226,6.5628,4.545,0,0,0,0.87270124,-1.745386056,178,2.292
33100,-713542.3374,-4045351.862,4863075.836,-6.0226,6.5628,4.545,0,0,0,0,0,0,0.872701351,-1.745386228,178,-0.785398163,0,0,0,-0.000002,0.000001,0,0,0,-713542.3374,-4045351.862,4863075.836,-6.0226,6.5628,4.545,0,0,0,0.872701351,-1.745386228,178,2.292
33200,-713542.9397,-4045351.205,4863076.291,-6.0226,6.5628,4.545,0,0,0,0,0,0,0.872701462,-1.7453864,178,-0.785398163,0,0,0,-0.000002,0.000001,0,0,0,-713542.9397,-4045351.205,4863076.291,-6.0226,6.5628,4.545,0,0,0,0.872701462,-1.7453864,178,2.292
33300,-713543.542,-4045350.549,4863076.745,-6.0226,6.5628,4.545,0,0,0,0,0,0,0.872701573,-1.745386573,178,-0.785398163,0,0,0,-0.000002,0.000001,0,0,0,-713543.542,-4045350.549,4863076.745,-6.0226,6.5628,4.545,0,0,0,0.872701573,-1.745386573,178,2.292
33400,-713544.1442,-4045349.893,4863077.2,-6.0226,6.5628,4.545,0,0,0,0,0,0,0.872701684,-1.745386745,178,-0.785398163,0,0,0,-0.000002,0.000001,0,0,0,-713544.1442,-4045349.893,4863077.2,-6.0226,6.5628,4.545,0,0,0,0.872701684,-1.745386745,178,2.292
33500,-713544.7465,-4045349.236,4863077.654,-6.0226,6.5629,4.545,0,0,0,0,0,0,0.872701795,-1.745386917,178,-0.785398163,0,0,0,-0.000002,0.000001,0,0,0,-713544.7465,-4045349.236,4863077.654,-6.0226,6.5629,4.545,0,0,0,0.872701795,-1.745386917,178,2.292
33600,-713545.3488,-4045348.58,4863078.109,-6.0226,6.5629,4.545,0,0,0,0,0,0,0.872701906,-1.745387089,178,-0.785398163,0,0,0,-0.000002,0.000001,0,0,0,-713545.3488,-4045348.58,4863078.109,-6.0226,6.5629,4.545,0,0,0,0.872701906,-1.745387089,178,2.292
33700,-713545.951,-4045347.924,4863078.563,-6.0226,6.5629,4.545,0,0,0,0,0,0,0.872702017,-1.745387261,178,-0.785398163,0,0,0,-0.000002,0.000001,0,0,0,-713545.951,-4045347.924,4863078.563,-6.0226,6.5629,4.545,0,0,0,0.872702017,-1.745387261,178,2.292
33800,-713546.5533,-4045347.268,4863079.018,-6.0226,6.5629,4.545,0,0,0,0,0,0,0.872702127,-1.745387433,178,-0.785398163,0,0,0,-0.000002,0.000001,0,0,0,-713546.5533,-4045347.268,4863079.018,-6.0226,6.5629,4.545,0,0,0,0.872702127,-1.745387433,178,2.292
33900,-713547.1555,-4045346.611,4863079.472,-6.0226,6.5629,4.545,0,0,0,0,0,0,0.872702238,-1.745387605,178,-0.785398163,0,0,0,-0.000002,0.000001,0,0,0,-713547.1555,-4045346.611,4863079.472,-6.0226,6.5629,4.545,0,0,0,0.872702238,-1.745387605,178,2.292
34000,-713547.7578,-4045345.955,4863079.927,-6.0226,6.5629,4.545,0,0,0,0,0,0,0.872702349,-1.745387778,178,-0.785398163,0,0,0,-0.000002,0.000001,0,0,0,-713547.7578,-4045345.955,4863079.927,-6.0226,6.5629,4.545,0,0,0,0.872702349,-1.745387778,178,2.292
34100,-713548.3601,-4045345.299,4863080.381,-6.0226,6.5629,4.545,0,0,0,0,0,0,0.87270246,-1.74538795,178,-0.785398163,0,0,0,-0.000002,0.000001,0,0,0,-713548.3601,-4045345.299,4863080.381,-6.0226,6.5629,4.545,0,0,0,0.87270246,-1.74538795,178,2.292
34200,-713548.9623,-4045344.642,4863080.836,-6.0226,6.5629,4.545,0,0,0,0,0,0,0.872702571,-1.745388122,178,-0.785398163,0,0,0,-0.000002,0.000001,0,0,0,-713548.9623,-4045344.642,4863080.836,-6.0226,6.5629,4.545,0,0,0,0.872702571,-1.745388122,178,2.291
34300,-713549.5646,-4045343.986,4863081.29,-6.0226,6.5629,4.545,0,0,0,0,0,0,0.872702682,-1.745388294,178,-0.785398163,0,0,0,-0.000002,0.000001,0,0,0,-713549.5646,-4045343.986,4863081.29,-6.0226,6.5629,4.545,0,0,0,0.872702682,-1.745388294,178,2.291
34400,-713550.1668,-4045343.33,4863081.745,-6.0226,6.5629,4.545,0,0,0,0,0,0,0.872702793,-1.745388466,178,-0.785398163,0,0,0,-0.000002,0.000001,0,0,0,-713550.1668,-4045343.33,4863081.745,-6.0226,6.5629,4.545,0,0,0,0.872702793,-1.745388466,178,2.291
34500,-713550.7691,-4045342.674,4863082.199,-6.0226,6.5629,4.545,0,0,0,0,0,0,0.872702904,-1.745388638,178,-0.785398163,0,0,0,-0.000002,0.000001,0,0,0,-713550.7691,-4045342.674,4863082.199,-6.0226,6.5629,4.545,0,0,0,0.872702904,-1.745388638,178,2.291
34600,-713551.3714,-4045342.017,4863082.654,-6.0226,6.5629,4.545,0,0,0,0,0,0,0.872703015,-1.74538881,178,-0.785398163,0,0,0,-0.000002,0.000001,0,0,0,-713551.3714,-4045342.017,4863082.654,-6.0226,6.5629,4.545,0,0,0,0.872703015,-1.74538881,178,2.291
34700,-713551.9736,-4045341.361,4863083.108,-6.0226,6.5629,4.545,0,0,0,0,0,0,0.872703126,-1.745388983,178,-0.785398163,0,0,0,-0.000002,0.000001,0,0,0,-713551.9736,-4045341.361,4863083.108,-6.0226,6.5629,4.545,0,0,0,0.872703126,-1.745388983,178,2.291
34800,-713552.5759,-4045340.705,4863083.563,-6.0226,6.5629,4.545,0,0,0,0,0,0,0.872703237,-1.745389155,178,-0.785398163,0,0,0,-0.000002,0.000001,0,0,0,-713552.5759,-4045340.705,4863083.563,-6.0226,6.5629,4.545,0,0,0,0.872703237,-1.745389155,178,2.291
34900,-713553.1782,-4045340.048,4863084.017,-6.0226,6.5629,4.545,0,0,0,0,0,0,0.872703348,-1.745389327,178,-0.785398163,0,0,0,-0.000002,0.000001,0,0,0,-713553.1782,-4045340.048,4863084.017,-6.0226,6.5629,4.545,0,0,0,0.872703348,-1.745389327,178,2.291
35000,-713553.7804,-4045339.392,4863084.472,-6.0226,6.5629,4.545,0,0,0,0,0,0,0.872703459,-1.745389499,178,-0.785398163,0,0,0,-0.000002,0.000001,0,0,0,-713553.7804,-4045339.392,4863084.472,-6.0226,6.5629,4.545,0,0,0,0.872703459,-1.745389499,178,2.291
35100,-713554.3827,-4045338.736,4863084.926,-6.0226,6.5629,4.545,0,0,0,0,0,0,0.87270357,-1.745389671,178,-0.785398163,0,0,0,-0.000002,0.000001,0,0,0,-713554.3827,-4045338.736,4863084.926,-6.0226,6.5629,4.545,0,0,0,0.87270357,-1.745389671,178,2.291
35200,-713554.9849,-4045338.08,4863085.381,-6.0226,6.5629,4.545,0,0,0,0,0,0,0.872703681,-1.745389843,178,-0.785398163,0,0,0,-0.000002,0.000001,0,0,0,-713554.9849,-4045338.08,4863085.381,-6.0226,6.5629,4.545,0,0,0,0.872703681,-1.745389843,178,2.291
35300,-713555.5872,-4045337.423,4863085.835,-6.0226,6.5629,4.545,0,0,0,0,0,0,0.872703792,-1.745390015,178,-0.785398163,0,0,0,-0.000002,0.000001,0,0,0,-713555.5872,-4045337.423,4863085.835,-6.0226,6.5629,4.545,0,0,0,0.872703792,-1.745390015,178,2.291
35400,-713556.1895,-4045336.767,4863086.29,-6.0226,6.5629,4.545,0,0,0,0,0,0,0.872703903,-1.745390187,178,-0.785398163,0,0,0,-0.000002,0.000001,0,0,0,-713556.1895,-4045336.767,4863086.29,-6.0226,6.5629,4.545,0,0,0,0.872703903,-1.745390187,178,2.291
35500,-713556.7917,-4045336.111,4863086.744,-6.0226,6.5629,4.545,0,0,0,0,0,0,0.872704014,-1.74539036,178,-0.785398163,0,0,0,-0.000002,0.000001,0,0,0,-713556.7917,-4045336.111,4863086.744,-6.0226,6.5629,4.545,0,0,0,0.872704014,-1.74539036,178,2.291
35600,-713557.394,-4045335.454,4863087.199,-6.0226,6.5629,4.545,0,0,0,0,0,0,0.872704125,-1.745390532,178,-0.785398163,0,0,0,-0.000002,0.000001,0,0,0,-713557.394,-4045335.454,4863087.199,-6.0226,6.5629,4.545,0,0,0,0.872704125,-1.745390532,178,2.291
35700,-713557.9962,-4045334.798,4863087.653,-6.0226,6.5629,4.545,0,0,0,0,0,0,0.872704236,-1.745390704,178,-0.785398163,0,0,0,-0.000002,0.000001,0,0,0,-713557.9962,-4045334.798,4863087.653,-6.0226,6.5629,4.545,0,0,0,0.872704236,-1.745390704,178,2.291
35800,-713558.5985,-4045334.142,4863088.108,-6.0226,6.5629,4.545,0,0,0,0,0,0,0.872704347,-1.745390876,178,-0.785398163,0,0,0,-0.000002,0.000001,0,0,0,-713558.5985,-4045334.142,4863088.108,-6.0226,6.5629,4.545,0,0,0,0.872704347,-1.745390876,178,2.291
35900,-713559.2008,-4045333.486,4863088.562,-6.0226,6.5629,4.545,0,0,0,0,0,0,0.872704457,-1.745391048,178,-0.785398163,0,0,0,-0.000002,0.000001,0,0,0,-713559.2008,-4045333.486,4863088.562,-6.0226,6.5629,4.545,0,0,0,0.872704457,-1.745391048,178,2.291
36000,-713559.803,-4045332.829,4863089.017,-6.0226,6.5629,4.545,0,0,0,0,0,0,0.872704568,-1.74539122,178,-0.785398163,0,0,0,-0.000002,0.000001,0,0,0,-713559.803,-4045332.829,4863089.017,-6.0226,6.5629,4.545,0,0,0,0.872704568,-1.74539122,178,2.291
36100,-713560.4053,-4045332.173,4863089.471,-6.0226,6.5629,4.545,0,0,0,0,0,0,0.872704679,-1.745391392,178,-0.785398163,0,0,0,-0.000002,0.000001,0,0,0,-713560.4053,-4045332.173,4863089.471,-6.0226,6.5629,4.545,0,0,0,0.872704679,-1.745391392,178,2.291
36200,-713561.0075,-4045331.517,4863089.926,-6.0226,6.5629,4.545,0,0,0,0,0,0,0.87270479,-1.745391565,178,-0.785398163,0,0,0,-0.000002,0.000001,0,0,0,-713561.0075,-4045331.517,4863089.926,-6.0226,6.5629,4.545,0,0,0,0.87270479,-1.745391565,178,2.291
36300,-713561.6098,-4045330.86,4863090.38,-6.0226,6.5629,4.545,0,0,0,0,0,0,0.872704901,-1.745391737,178,-0.785398163,0,0,0,-0.000002,0.000001,0,0,0,-713561.6098,-4045330.86,4863090.38,-6.0226,6.5629,4.545,0,0,0,0.872704901,-1.745391737,178,2.291
36400,-713562.2121,-4045330.204,4863090.835,-6.0226,6.5629,4.545,0,0,0,0,0,0,0.872705012,-1.745391909,178,-0.785398163,0,0,0,-0.000002,0.000001,0,0,0,-713562.2121,-4045330.204,4863090.835,-6.0226,6.5629,4.545,0,0,0,0.872705012,-1.745391909,178,2.291
36500,-713562.8143,-4045329.548,4863091.289,-6.0226,6.5629,4.545,0,0,0,0,0,0,0.872705123,-1.745392081,178,-0.785398163,0,0,0,-0.000002,0.000001,0,0,0,-713562.8143,-4045329.548,4863091.289,-6.0226,6.5629,4.545,0,0,0,0.872705123,-1.745392081,178,2.291
36600,-713563.4166,-4045328.892,4863091.744,-6.0226,6.5629,4.545,0,0,0,0,0,0,0.872705234,-1.745392253,178,-0.785398163,0,0,0,-0.000002,0.000001,0,0,0,-713563.4166,-4045328.892,4863091.744,-6.0226,6.5629,4.545,0,0,0,0.872705234,-1.745392253,178,2.291
36700,-713564.0188,-4045328.235,4863092.198,-6.0226,6.5629,4.545,0,0,0,0,0,0,0.872705345,-1.745392425,178,-0.785398163,0,0,0,-0.000002,0.000001,0,0,0,-713564.0188,-4045328.235,4863092.198,-6.0226,6.5629,4.545,0,0,0,0.872705345,-1.745392425,178,2.291
36800,-713564.6211,-4045327.579,4863092.653,-6.0226,6.5629,4.545,0,0,0,0,0,0,0.872705456,-1.745392597,178,-0.785398163,0,0,0,-0.000002,0.000001,0,0,0,-713564.6211,-4045327.579,4863092.653,-6.0226,6.5629,4.545,0,0,0,0.872705456,-1.745392597,178,2.291
36900,-713565.2233,-4045326.923,4863093.107,-6.0226,6.5629,4.545,0,0,0,0,0,0,0.872705567,-1.74539277,178,-0.785398163,0,0,0,-0.000002,0.000001,0,0,0,-713565.2233,-4045326.923,4863093.107,-6.0226,6.5629,4.545,0,0,0,0.872705567,-1.74539277,178,2.291
37000,-713565.8256,-4045326.266,4863093.562,-6.0226,6.5629,4.545,0,0,0,0,0,0,0.872705678,-1.745392942,178,-0.785398163,0,0,0,-0.000002,0.000001,0,0,0,-713565.8256,-4045326.266,4863093.562,-6.0226,6.5629,4.545,0,0,0,0.872705678,-1.745392942,178,2.291
37100,-713566.4279,-4045325.61,4863094.016,-6.0226,6.5629,4.545,0,0,0,0,0,0,0.872705789,-1.745393114,178,-0.785398163,0,0,0,-0.000002,0.000001,0,0,0,-713566.4279,-4045325.61,4863094.016,-6.0226,6.5629,4.545,0,0,0,0.872705789,-1.745393114,178,2.291
37200,-713567.0301,-4045324.954,4863094.471,-6.0226,6.5629,4.545,0,0,0,0,0,0,0.8727059,-1.745393286,178,-0.785398163,0,0,0,-0.000002,0.000001,0,0,0,-713567.0301,-4045324.954,4863094.471,-6.0226,6.5629,4.545,0,0,0,0.8727059,-1.745393286,178,2.291
37300,-713567.6324,-4045324.297,4863094.925,-6.0226,6.5629,4.545,0,0,0,0,0,0,0.872706011,-1.745393458,178,-0.785398163,0,0,0,-0.000002,0.000001,0,0,0,-713567.6324,-4045324.297,4863094.925,-6.0226,6.5629,4.545,0,0,0,0.872706011,-1.745393458,178,2.291
37400,-713568.2346,-4045323.641,4863095.38,-6.0226,6.5629,4.545,0,0,0,0,0,0,0.872706122,-1.74539363,178,-0.785398163,0,0,0,-0.000002,0.000001,0,0,0,-713568.2346,-4045323.641,4863095.38,-6.0226,6.5629,4.545,0,0,0,0.872706122,-1.74539363,178,2.291
37500,-713568.8369,-4045322.985,4863095.834,-6.0226,6.5629,4.545,0,0,0,0,0,0,0.872706233,-1.745393802,178,-0.785398163,0,0,0,-0.000002,0.000001,0,0,0,-713568.8369,-4045322.985,4863095.834,-6.0226,6.5629,4.545,0,0,0,0.872706233,-1.745393802,178,2.291
37600,-713569.4392,-4045322.329,4863096.289,-6.0226,6.5629,4.545,0,0,0,0,0,0,0.872706344,-1.745393975,178,-0.785398163,0,0,0,-0.000002,0.000001,0,0,0,-713569.4392,-4045322.329,4863096.289,-6.0226,6.5629,4.545,0,0,0,0.872706344,-1.745393975,178,2.291
37700,-713570.0414,-4045321.672,4863096.743,-6.0226,6.5629,4.545,0,0,0,0,0,0,0.872706455,-1.745394147,178,-0.785398163,0,0,0,-0.000002,0.000001,0,0,0,-713570.0414,-4045321.672,4863096.743,-6.0226,6.5629,4.545,0,0,0,0.872706455,-1.745394147,178,2.291
37800,-713570.6437,-4045321.016,4863097.198,-6.0226,6.5629,4.545,0,0,0,0,0,0,0.872706566,-1.745394319,178,-0.785398163,0,0,0,-0.000002,0.000001,0,0,0,-713570.6437,-4045321.016,4863097.198,-6.0226,6.5629,4.545,0,0,0,0.872706566,-1.745394319,178,2.291
37900,-713571.2459,-4045320.36,4863097.652,-6.0226,6.5629,4.545,0,0,0,0,0,0,0.872706676,-1.745394491,178,-0.785398163,0,0,0,-0.000002,0.000001,0,0,0,-713571.2459,-4045320.36,4863097.652,-6.0226,6.5629,4.545,0,0,0,0.872706676,-1.745394491,178,2.291
38000,-713571.8482,-4045319.703,4863098.107,-6.0226,6.5629,4.545,0,0,0,0,0,0,0.872706787,-1.745394663,178,-0.785398163,0,0,0,-0.000002,0.000001,0,0,0,-713571.8482,-4045319.703,4863098.107,-6.0226,6.5629,4.545,0,0,0,0.872706787,-1.745394663,178,2.291
38100,-713572.4504,-4045319.047,4863098.561,-6.0226,6.5629,4.545,0,0,0,0,0,0,0.872706898,-1.745394835,178,-0.785398163,0,0,0,-0.000002,0.000001,0,0,0,-713572.4504,-4045319.047,4863098.561,-6.0226,6.5629,4.545,0,0,0,0.872706898,-1.745394835,178,2.291
38200,-713573.0527,-4045318.391,4863099.016,-6.0226,6.5629,4.545,0,0,0,0,0,0,0.872707009,-1.745395007,178,-0.785398163,0,0,0,-0.000002,0.000001,0,0,0,-713573.0527,-4045318.391,4863099.016,-6.0226,6.5629,4.545,0,0,0,0.872707009,-1.745395007,178,2.291
38300,-713573.655,-4045317.735,4863099.47,-6.0226,6.5629,4.545,0,0,0,0,0,0,0.87270712,-1.745395179,178,-0.785398163,0,0,0,-0.000002,0.000001,0,0,0,-713573.655,-4045317.735,4863099.47,-6.0226,6.5629,4.545,0,0,0,0.87270712,-1.745395179,178,2.291
38400,-713574.2572,-4045317.078,4863099.925,-6.0226,6.5629,4.545,0,0,0,0,0,0,0.872707231,-1.745395352,178,-0.785398163,0,0,0,-0.000002,0.000001,0,0,0,-713574.2572,-4045317.078,4863099.925,-6.0226,6.5629,4.545,0,0,0,0.872707231,-1.745395352,178,2.291
38500,-713574.8595,-4045316.422,4863100.379,-6.0226,6.5629,4.545,0,0,0,0,0,0,0.872707342,-1.745395524,178,-0.785398163,0,0,0,-0.000002,0.000001,0,0,0,-713574.8595,-4045316.422,4863100.379,-6.0226,6.5629,4.545,0,0,0,0.872707342,-1.745395524,178,2.291
38600,-713575.4617,-4045315.766,4863100.834,-6.0226,6.5629,4.545,0,0,0,0,0,0,0.872707453,-1.745395696,178,-0.785398163,0,0,0,-0.000002,0.000001,0,0,0,-713575.4617,-4045315.766,4863100.834,-6.0226,6.5629,4.545,0,0,0,0.872707453,-1.745395696,178,2.291
38700,-713576.064,-4045315.109,4863101.288,-6.0226,6.5629,4.545,0,0,0,0,0,0,0.872707564,-1.745395868,178,-0.785398163,0,0,0,-0.000002,0.000001,0,0,0,-713576.064,-4045315.109,4863101.288,-6.0226,6.5629,4.545,0,0,0,0.872707564,-1.745395868,178,2.291
38800,-713576.6662,-4045314.453,4863101.743,-6.0226,6.5629,4.545,0,0,0,0,0,0,0.872707675,-1.74539604,178,-0.785398163,0,0,0,-0.000002,0.000001,0,0,0,-713576.6662,-4045314.453,4863101.743,-6.0226,6.5629,4.545,0,0,0,0.872707675,-1.74539604,178,2.291
38900,-713577.2685,-4045313.797,4863102.197,-6.0226,6.5629,4.545,0,0,0,0,0,0,0.872707786,-1.745396212,178,-0.785398163,0,0,0,-0.000002,0.000001,0,0,0,-713577.2685,-4045313.797,4863102.197,-6.0226,6.5629,4.545,0,0,0,0.872707786,-1.745396212,178,2.291
39000,-713577.8707,-4045313.141,4863102.652,-6.0226,6.5629,4.545,0,0,0,0,0,0,0.872707897,-1.745396384,178,-0.785398163,0,0,0,-0.000002,0.000001,0,0,0,-713577.8707,-4045313.141,4863102.652,-6.0226,6.5629,4.545,0,0,0,0.872707897,-1.745396384,178,2.291
39100,-713578.473,-4045312.484,4863103.106,-6.0226,6.5629,4.545,0,0,0,0,0,0,0.872708008,-1.745396557,178,-0.785398163,0,0,0,-0.000002,0.000001,0,0,0,-713578.473,-4045312.484,4863103.106,-6.0226,6.5629,4.545,0,0,0,0.872708008,-1.745396557,178,2.291
39200,-713579.0753,-4045311.828,4863103.561,-6.0226,6.5629,4.545,0,0,0,0,0,0,0.872708119,-1.745396729,178,-0.785398163,0,0,0,-0.000002,0.000001,0,0,0,-713579.0753,-4045311.828,4863103.561,-6.0226,6.5629,4.545,0,0,0,0.872708119,-1.745396729,178,2.291
39300,-713579.6775,-4045311.172,4863104.015,-6.0226,6.5629,4.545,0,0,0,0,0,0,0.87270823,-1.745396901,178,-0.785398163,0,0,0,-0.000002,0.000001,0,0,0,-713579.6775,-4045311.172,4863104.015,-6.0226,6.5629,4.545,0,0,0,0.87270823,-1.745396901,178,2.291
39400,-713580.2798,-4045310.515,4863104.47,-6.0226,6.5629,4.545,0,0,0,0,0,0,0.872708341,-1.745397073,178,-0.785398163,0,0,0,-0.000002,0.000001,0,0,0,-713580.2798,-4045310.515,4863104.47,-6.0226,6.5629,4.545,0,0,0,0.872708341,-1.745397073,178,2.291
39500,-713580.882,-4045309.859,4863104.924,-6.0226,6.5629,4.545,0,0,0,0,0,0,0.872708452,-1.745397245,178,-0.785398163,0,0,0,-0.000002,0.000001,0,0,0,-713580.882,-4045309.859,4863104.924,-6.0226,6.5629,4.545,0,0,0,0.872708452,-1.745397245,178,2.291
39600,-713581.4843,-4045309.203,4863105.379,-6.0226,6.5629,4.545,0,0,0,0,0,0,0.872708563,-1.745397417,178,-0.785398163,0,0,0,-0.000002,0.000001,0,0,0,-713581.4843,-4045309.203,4863105.379,-6.0226,6.5629,4.545,0,0,0,0.872708563,-1.745397417,178,2.291
39700,-713582.0865,-4045308.546,4863105.833,-6.0226,6.5629,4.545,0,0,0,0,0,0,0.872708674,-1.745397589,178,-0.785398163,0,0,0,-0.000002,0.000001,0,0,0,-713582.0865,-4045308.546,4863105.833,-6.0226,6.5629,4.545,0,0,0,0.872708674,-1.745397589,178,2.291
39800,-713582.6888,-4045307.89,4863106.288,-6.0225,6.5629,4.545,0,0,0,0,0,0,0.872708785,-1.745397762,178,-0.785398163,0,0,0,-0.000002,0.000001,0,0,0,-713582.6888,-4045307.89,4863106.288,-6.0225,6.5629,4.545,0,0,0,0.872708785,-1.745397762,178,2.291
39900,-713583.291,-4045307.234,4863106.742,-6.0225,6.5629,4.545,0,0,0,0,0,0,0.872708896,-1.745397934,178,-0.785398163,0,0,0,-0.000002,0.000001,0,0,0,-713583.291,-4045307.234,4863106.742,-6.0225,6.5629,4.545,0,0,0,0.872708896,-1.745397934,178,2.291
40000,-713583.8933,-4045306.578,4863107.197,-6.0225,6.563,4.545,0,0,0,0,0,0,0.872709006,-1.745398106,178,-0.785398163,0,0,0,-0.000002,0.000001,0,0,0,-713583.8933,-4045306.578,4863107.197,-6.0225,6.563,4.545,0,0,0,0.872709006,-1.745398106,178,2.291
40100,-713584.4956,-4045305.921,4863107.651,-6.0225,6.563,4.545,0,0,0,0,0,0,0.872709117,-1.745398278,178,-0.785398163,0,0,0,-0.000002,0.000001,0,0,0,-713584.4956,-4045305.921,4863107.651,-6.0225,6.563,4.545,0,0,0,0.872709117,-1.745398278,178,2.291
40200,-713585.0978,-4045305.265,4863108.106,-6.0225,6.563,4.545,0,0,0,0,0,0,0.872709228,-1.74539845,178,-0.785398163,0,0,0,-0.000002,0.000001,0,0,0,-713585.0978,-4045305.265,4863108.106,-6.0225,6.563,4.545,0,0,0,0.872709228,-1.74539845,178,2.29
40300,-713585.7001,-4045304.609,4863108.56,-6.0225,6.563,4.545,0,0,0,0,0,0,0.872709339,-1.745398622,178,-0.785398163,0,0,0,-0.000002,0.000001,0,0,0,-713585.7001,-4045304.609,4863108.56,-6.0225,6.563,4.545,0,0,0,0.872709339,-1.745398622,178,2.29
40400,-713586.3023,-4045303.952,4863109.015,-6.0225,6.563,4.545,0,0,0,0,0,0,0.87270945,-1.745398794,178,-0.785398163,0,0,0,-0.000002,0.000001,0,0,0,-713586.3023,-4045303.952,4863109.015,-6.0225,6.563,4.545,0,0,0,0.87270945,-1.745398794,178,2.29
40500,-713586.9046,-4045303.296,4863109.469,-6.0225,6.563,4.545,0,0,0,0,0,0,0.872709561,-1.745398967,178,-0.785398163,0,0,0,-0.000002,0.000001,0,0,0,-713586.9046,-4045303.296,4863109.469,-6.0225,6.563,4.545,0,0,0,0.872709561,-1.745398967,178,2.29
40600,-713587.5068,-4045302.64,4863109.924,-6.0225,6.563,4.545,0,0,0,0,0,0,0.872709672,-1.745399139,178,-0.785398163,0,0,0,-0.000002,0.000001,0,0,0,-713587.5068,-4045302.64,4863109.924,-6.0225,6.563,4.545,0,0,0,0.872709672,-1.745399139,178,2.29
40700,-713588.1091,-4045301.984,4863110.378,-6.0225,6.563,4.545,0,0,0,0,0,0,0.872709783,-1.745399311,178,-0.785398163,0,0,0,-0.000002,0.000001,0,0,0,-713588.1091,-4045301.984,4863110.378,-6.0225,6.563,4.545,0,0,0,0.872709783,-1.745399311,178,2.29
40800,-713588.7113,-4045301.327,4863110.833,-6.0225,6.563,4.5449,0,0,0,0,0,0,0.872709894,-1.745399483,178,-0.785398163,0,0,0,-0.000002,0.000001,0,0,0,-713588.7113,-4045301.327,4863110.833,-6.0225,6.563,4.5449,0,0,0,0.872709894,-1.745399483,178,2.29
40900,-713589.3136,-4045300.671,4863111.287,-6.0225,6.563,4.5449,0,0,0,0,0,0,0.872710005,-1.745399655,178,-0.785398163,0,0,0,-0.000002,0.000001,0,0,0,-713589.3136,-4045300.671,4863111.287,-6.0225,6.563,4.5449,0,0,0,0.872710005,-1.745399655,178,2.29
41000,-713589.9158,-4045300.015,4863111.742,-6.0225,6.563,4.5449,0,0,0,0,0,0,0.872710116,-1.745399827,178,-0.785398163,0,0,0,-0.000002,0.000001,0,0,0,-713589.9158,-4045300.015,4863111.742,-6.0225,6.563,4.5449,0,0,0,0.872710116,-1.745399827,178,2.29
41100,-713590.5181,-4045299.358,4863112.196,-6.0225,6.563,4.5449,0,0,0,0,0,0,0.872710227,-1.745399999,178,-0.785398163,0,0,0,-0.000002,0.000001,0,0,0,-713590.5181,-4045299.358,4863112.196,-6.0225,6.563,4.5449,0,0,0,0.872710227,-1.745399999,178,2.29
41200,-713591.1203,-4045298.702,4863112.651,-6.0225,6.563,4.5449,0,0,0,0,0,0,0.872710338,-1.745400172,178,-0.785398163,0,0,0,-0.000002,0.000001,0,0,0,-713591.1203,-4045298.702,4863112.651,-6.0225,6.563,4.5449,0,0,0,0.872710338,-1.745400172,178,2.29
41300,-713591.7226,-4045298.046,4863113.105,-6.0225,6.563,4.5449,0,0,0,0,0,0,0.872710449,-1.745400344,178,-0.785398163,0,0,0,-0.000002,0.000001,0,0,0,-713591.7226,-4045298.046,4863113.105,-6.0225,6.563,4.5449,0,0,0,0.872710449,-1.745400344,178,2.29
41400,-713592.3249,-4045297.389,4863113.56,-6.0225,6.563,4.5449,0,0,0,0,0,0,0.87271056,-1.745400516,178,-0.785398163,0,0,0,-0.000002,0.000001,0,0,0,-713592.3249,-4045297.389,4863113.56,-6.0225,6.563,4.5449,0,0,0,0.87271056,-1.745400516,178,2.29
41500,-713592.9271,-4045296.733,4863114.014,-6.0225,6.563,4.5449,0,0,0,0,0,0,0.872710671,-1.745400688,178,-0.785398163,0,0,0,-0.000002,0.000001,0,0,0,-713592.9271,-4045296.733,4863114.014,-6.0225,6.563,4.5449,0,0,0,0.872710671,-1.745400688,178,2.29
41600,-713593.5294,-4045296.077,4863114.469,-6.0225,6.563,4.5449,0,0,0,0,0,0,0.872710782,-1.74540086,178,-0.785398163,0,0,0,-0.000002,0.000001,0,0,0,-713593.5294,-4045296.077,4863114.469,-6.0225,6.563,4.5449,0,0,0,0.872710782,-1.74540086,178,2.29
41700,-713594.1316,-4045295.421,4863114.923,-6.0225,6.563,4.5449,0,0,0,0,0,0,0.872710893,-1.745401032,178,-0.785398163,0,0,0,-0.000002,0.000001,0,0,0,-713594.1316,-4045295.421,4863114.923,-6.0225,6.563,4.5449,0,0,0,0.872710893,-1.745401032,178,2.29
41800,-713594.7339,-4045294.764,4863115.378,-6.0225,6.563,4.5449,0,0,0,0,0,0,0.872711004,-1.745401204,178,-0.785398163,0,0,0,-0.000002,0.000001,0,0,0,-713594.7339,-4045294.764,4863115.378,-6.0225,6.563,4.5449,0,0,0,0.872711004,-1.745401204,178,2.29
41900,-713595.3361,-4045294.108,4863115.832,-6.0225,6.563,4.5449,0,0,0,0,0,0,0.872711115,-1.745401377,178,-0.785398163,0,0,0,-0.000002,0.000001,0,0,0,-713595.3361,-4045294.108,4863115.832,-6.0225,6.563,4.5449,0,0,0,0.872711115,-1.745401377,178,2.29
42000,-713595.9384,-4045293.452,4863116.287,-6.0225,6.563,4.5449,0,0,0,0,0,0,0.872711225,-1.745401549,178,-0.785398163,0,0,0,-0.000002,0.000001,0,0,0,-713595.9384,-4045293.452,4863116.287,-6.0225,6.563,4.5449,0,0,0,0.872711225,-1.745401549,178,2.29
42100,-713596.5406,-4045292.795,4863116.741,-6.0225,6.563,4.5449,0,0,0,0,0,0,0.872711336,-1.745401721,178,-0.785398163,0,0,0,-0.000002,0.000001,0,0,0,-713596.5406,-4045292.795,4863116.741,-6.0225,6.563,4.5449,0,0,0,0.872711336,-1.745401721,178,2.29
42200,-713597.1429,-4045292.139,4863117.196,-6.0225,6.563,4.5449,0,0,0,0,0,0,0.872711447,-1.745401893,178,-0.785398163,0,0,0,-0.000002,0.000001,0,0,0,-713597.1429,-4045292.139,4863117.196,-6.0225,6.563,4.5449,0,0,0,0.872711447,-1.745401893,178,2.29
42300,-713597.7451,-4045291.483,4863117.65,-6.0225,6.563,4.5449,0,0,0,0,0,0,0.872711558,-1.745402065,178,-0.785398163,0,0,0,-0.000002,0.000001,0,0,0,-713597.7451,-4045291.483,4863117.65,-6.0225,6.563,4.5449,0,0,0,0.872711558,-1.745402065,178,2.29
42400,-713598.3474,-4045290.826,4863118.105,-6.0225,6.563,4.5449,0,0,0,0,0,0,0.872711669,-1.745402237,178,-0.785398163,0,0,0,-0.000002,0.000001,0,0,0,-713598.3474,-4045290.826,4863118.105,-6.0225,6.563,4.5449,0,0,0,0.872711669,-1.745402237,178,2.29
42500,-713598.9496,-4045290.17,4863118.559,-6.0225,6.563,4.5449,0,0,0,0,0,0,0.87271178,-1.745402409,178,-0.785398163,0,0,0,-0.000002,0.000001,0,0,0,-713598.9496,-4045290.17,4863118.559,-6.0225,6.563,4.5449,0,0,0,0.87271178,-1.745402409,178,2.29
42600,-713599.5519,-4045289.514,4863119.014,-6.0225,6.563,4.5449,0,0,0,0,0,0,0.872711891,-1.745402581,178,-0.785398163,0,0,0,-0.000002,0.000001,0,0,0,-713599.5519,-4045289.514,4863119.014,-6.0225,6.563,4.5449,0,0,0,0.872711891,-1.745402581,178,2.29
42700,-713600.1541,-4045288.858,4863119.468,-6.0225,6.563,4.5449,0,0,0,0,0,0,0.872712002,-1.745402754,178,-0.785398163,0,0,0,-0.000002,0.000001,0,0,0,-713600.1541,-4045288.858,4863119.468,-6.0225,6.563,4.5449,0,0,0,0.872712002,-1.745402754,178,2.29
42800,-713600.7564,-4045288.201,4863119.922,-6.0225,6.563,4.5449,0,0,0,0,0,0,0.872712113,-1.745402926,178,-0.785398163,0,0,0,-0.000002,0.000001,0,0,0,-713600.7564,-4045288.201,4863119.922,-6.0225,6.563,4.5449,0,0,0,0.872712113,-1.745402926,178,2.29
42900,-713601.3586,-4045287.545,4863120.377,-6.0225,6.563,4.5449,0,0,0,0,0,0,0.872712224,-1.745403098,178,-0.785398163,0,0,0,-0.000002,0.000001,0,0,0,-713601.3586,-4045287.545,4863120.377,-6.0225,6.563,4.5449,0,0,0,0.872712224,-1.745403098,178,2.29
43000,-713601.9609,-4045286.889,4863120.831,-6.0225,6.563,4.5449,0,0,0,0,0,0,0.872712335,-1.74540327,178,-0.785398163,0,0,0,-0.000002,0.000001,0,0,0,-713601.9609,-4045286.889,4863120.831,-6.0225,6.563,4.5449,0,0,0,0.872712335,-1.74540327,178,2.29
43100,-713602.5631,-4045286.232,4863121.286,-6.0225,6.563,4.5449,0,0,0,0,0,0,0.872712446,-1.745403442,178,-0.785398163,0,0,0,-0.000002,0.000001,0,0,0,-713602.5631,-4045286.232,4863121.286,-6.0225,6.563,4.5449,0,0,0,0.872712446,-1.745403442,178,2.29
43200,-713603.1654,-4045285.576,4863121.74,-6.0225,6.563,4.5449,0,0,0,0,0,0,0.872712557,-1.745403614,178,-0.785398163,0,0,0,-0.000002,0.000001,0,0,0,-713603.1654,-4045285.576,4863121.74,-6.0225,6.563,4.5449,0,0,0,0.872712557,-1.745403614,178,2.29
43300,-713603.7676,-4045284.92,4863122.195,-6.0225,6.563,4.5449,0,0,0,0,0,0,0.872712668,-1.745403786,178,-0.785398163,0,0,0,-0.000002,0.000001,0,0,0,-713603.7676,-4045284.92,4863122.195,-6.0225,6.563,4.5449,0,0,0,0.872712668,-1.745403786,178,2.29
43400,-713604.3699,-4045284.263,4863122.649,-6.0225,6.563,4.5449,0,0,0,0,0,0,0.872712779,-1.745403959,178,-0.785398163,0,0,0,-0.000002,0.000001,0,0,0,-713604.3699,-4045284.263,4863122.649,-6.0225,6.563,4.5449,0,0,0,0.872712779,-1.745403959,178,2.29
43500,-713604.9721,-4045283.607,4863123.104,-6.0225,6.563,4.5449,0,0,0,0,0,0,0.87271289,-1.745404131,178,-0.785398163,0,0,0,-0.000002,0.000001,0,0,0,-713604.9721,-4045283.607,4863123.104,-6.0225,6.563,4.5449,0,0,0,0.87271289,-1.745404131,178,2.29
43600,-713605.5744,-4045282.951,4863123.558,-6.0225,6.563,4.5449,0,0,0,0,0,0,0.872713001,-1.745404303,178,-0.785398163,0,0,0,-0.000002,0.000001,0,0,0,-713605.5744,-4045282.951,4863123.558,-6.0225,6.563,4.5449,0,0,0,0.872713001,-1.745404303,178,2.29
43700,-713606.1766,-4045282.295,4863124.013,-6.0225,6.563,4.5449,0,0,0,0,0,0,0.872713112,-1.745404475,178,-0.785398163,0,0,0,-0.000002,0.000001,0,0,0,-713606.1766,-4045282.295,4863124.013,-6.0225,6.563,4.5449,0,0,0,0.872713112,-1.745404475,178,2.29
43800,-713606.7789,-4045281.638,4863124.467,-6.0225,6.563,4.5449,0,0,0,0,0,0,0.872713223,-1.745404647,178,-0.785398163,0,0,0,-0.000002,0.000001,0,0,0,-713606.7789,-4045281.638,4863124.467,-6.0225,6.563,4.5449,0,0,0,0.872713223,-1.745404647,178,2.29
43900,-713607.3811,-4045280.982,4863124.922,-6.0225,6.563,4.5449,0,0,0,0,0,0,0.872713334,-1.745404819,178,-0.785398163,0,0,0,-0.000002,0.000001,0,0,0,-713607.3811,-4045280.982,4863124.922,-6.0225,6.563,4.5449,0,0,0,0.872713334,-1.745404819,178,2.29
44000,-713607.9834,-4045280.326,4863125.376,-6.0225,6.563,4.5449,0,0,0,0,0,0,0.872713445,-1.745404991,178,-0.785398163,0,0,0,-0.000002,0.000001,0,0,0,-713607.9834,-4045280.326,4863125.376,-6.0225,6.563,4.5449,0,0,0,0.872713445,-1.745404991,178,2.29
44100,-713608.5856,-4045279.669,4863125.831,-6.0225,6.563,4.5449,0,0,0,0,0,0,0.872713555,-1.745405164,178,-0.785398163,0,0,0,-0.000002,0.000001,0,0,0,-713608.5856,-4045279.669,4863125.831,-6.0225,6.563,4.5449,0,0,0,0.872713555,-1.745405164,178,2.29
44200,-713609.1879,-4045279.013,4863126.285,-6.0225,6.563,4.5449,0,0,0,0,0,0,0.872713666,-1.745405336,178,-0.785398163,0,0,0,-0.000002,0.000001,0,0,0,-713609.1879,-4045279.013,4863126.285,-6.0225,6.563,4.5449,0,0,0,0.872713666,-1.745405336,178,2.29
44300,-713609.7901,-4045278.357,4863126.74,-6.0225,6.563,4.5449,0,0,0,0,0,0,0.872713777,-1.745405508,178,-0.785398163,0,0,0,-0.000002,0.000001,0,0,0,-713609.7901,-4045278.357,4863126.74,-6.0225,6.563,4.5449,0,0,0,0.872713777,-1.745405508,178,2.29
44400,-713610.3924,-4045277.7,4863127.194,-6.0225,6.563,4.5449,0,0,0,0,0,0,0.872713888,-1.74540568,178,-0.785398163,0,0,0,-0.000002,0.000001,0,0,0,-713610.3924,-4045277.7,4863127.194,-6.0225,6.563,4.5449,0,0,0,0.872713888,-1.74540568,178,2.29
44500,-713610.9946,-4045277.044,4863127.649,-6.0225,6.563,4.5449,0,0,0,0,0,0,0.872713999,-1.745405852,178,-0.785398163,0,0,0,-0.000002,0.000001,0,0,0,-713610.9946,-4045277.044,4863127.649,-6.0225,6.563,4.5449,0,0,0,0.872713999,-1.745405852,178,2.29
44600,-713611.5969,-4045276.388,4863128.103,-6.0225,6.563,4.5449,0,0,0,0,0,0,0.87271411,-1.745406024,178,-0.785398163,0,0,0,-0.000002,0.000001,0,0,0,-713611.5969,-4045276.388,4863128.103,-6.0225,6.563,4.5449,0,0,0,0.87271411,-1.745406024,178,2.29
44700,-713612.1991,-4045275.732,4863128.558,-6.0225,6.563,4.5449,0,0,0,0,0,0,0.872714221,-1.745406196,178,-0.785398163,0,0,0,-0.000002,0.000001,0,0,0,-713612.1991,-4045275.732,4863128.558,-6.0225,6.563,4.5449,0,0,0,0.872714221,-1.745406196,178,2.29
44800,-713612.8014,-4045275.075,4863129.012,-6.0225,6.563,4.5449,0,0,0,0,0,0,0.872714332,-1.745406369,178,-0.785398163,0,0,0,-0.000002,0.000001,0,0,0,-713612.8014,-4045275.075,4863129.012,-6.0225,6.563,4.5449,0,0,0,0.872714332,-1.745406369,178,2.29
44900,-713613.4036,-4045274.419,4863129.467,-6.0225,6.563,4.5449,0,0,0,0,0,0,0.872714443,-1.745406541,178,-0.785398163,0,0,0,-0.000002,0.000001,0,0,0,-713613.4036,-4045274.419,4863129.467,-6.0225,6.563,4.5449,0,0,0,0.872714443,-1.745406541,178,2.29
45000,-713614.0059,-4045273.763,4863129.921,-6.0225,6.563,4.5449,0,0,0,0,0,0,0.872714554,-1.745406713,178,-0.785398163,0,0,0,-0.000002,0.000001,0,0,0,-713614.0059,-4045273.763,4863129.921,-6.0225,6.563,4.5449,0,0,0,0.872714554,-1.745406713,178,2.29
45100,-713614.6081,-4045273.106,4863130.376,-6.0225,6.563,4.5449,0,0,0,0,0,0,0.872714665,-1.745406885,178,-0.785398163,0,0,0,-0.000002,0.000001,0,0,0,-713614.6081,-4045273.106,4863130.376,-6.0225,6.563,4.5449,0,0,0,0.872714665,-1.745406885,178,2.29
45200,-713615.2104,-4045272.45,4863130.83,-6.0225,6.563,4.5449,0,0,0,0,0,0,0.872714776,-1.745407057,178,-0.785398163,0,0,0,-0.000002,0.000001,0,0,0,-713615.2104,-4045272.45,4863130.83,-6.0225,6.563,4.5449,0,0,0,0.872714776,-1.745407057,178,2.29
45300,-713615.8126,-4045271.794,4863131.285,-6.0225,6.563,4.5449,0,0,0,0,0,0,0.872714887,-1.745407229,178,-0.785398163,0,0,0,-0.000002,0.000001,0,0,0,-713615.8126,-4045271.794,4863131.285,-6.0225,6.563,4.5449,0,0,0,0.872714887,-1.745407229,178,2.29
45400,-713616.4149,-4045271.137,4863131.739,-6.0225,6.563,4.5449,0,0,0,0,0,0,0.872714998,-1.745407401,178,-0.785398163,0,0,0,-0.000002,0.000001,0,0,0,-713616.4149,-4045271.137,4863131.739,-6.0225,6.563,4.5449,0,0,0,0.872714998,-1.745407401,178,2.29
45500,-713617.0171,-4045270.481,4863132.194,-6.0225,6.563,4.5449,0,0,0,0,0,0,0.872715109,-1.745407574,178,-0.785398163,0,0,0,-0.000002,0.000001,0,0,0,-713617.0171,-4045270.481,4863132.194,-6.0225,6.563,4.5449,0,0,0,0.872715109,-1.745407574,178,2.29
45600,-713617.6194,-4045269.825,4863132.648,-6.0225,6.563,4.5449,0,0,0,0,0,0,0.87271522,-1.745407746,178,-0.785398163,0,0,0,-0.000002,0.000001,0,0,0,-713617.6194,-4045269.825,4863132.648,-6.0225,6.563,4.5449,0,0,0,0.87271522,-1.745407746,178,2.29
45700,-713618.2216,-4045269.169,4863133.103,-6.0225,6.563,4.5449,0,0,0,0,0,0,0.872715331,-1.745407918,178,-0.785398163,0,0,0,-0.000002,0.000001,0,0,0,-713618.2216,-4045269.169,4863133.103,-6.0225,6.563,4.5449,0,0,0,0.872715331,-1.745407918,178,2.29
45800,-713618.8239,-4045268.512,4863133.557,-6.0225,6.563,4.5449,0,0,0,0,0,0,0.872715442,-1.74540809,178,-0.785398163,0,0,0,-0.000002,0.000001,0,0,0,-713618.8239,-4045268.512,4863133.557,-6.0225,6.563,4.5449,0,0,0,0.872715442,-1.74540809,178,2.29
45900,-713619.4261,-4045267.856,4863134.012,-6.0225,6.563,4.5449,0,0,0,0,0,0,0.872715553,-1.745408262,178,-0.785398163,0,0,0,-0.000002,0.000001,0,0,0,-713619.4261,-4045267.856,4863134.012,-6.0225,6.563,4.5449,0,0,0,0.872715553,-1.745408262,178,2.29
46000,-713620.0284,-4045267.2,4863134.466,-6.0225,6.563,4.5449,0,0,0,0,0,0,0.872715664,-1.745408434,178,-0.785398163,0,0,0,-0.000002,0.000001,0,0,0,-713620.0284,-4045267.2,4863134.466,-6.0225,6.563,4.5449,0,0,0,0.872715664,-1.745408434,178,2.29
46100,-713620.6306,-4045266.543,4863134.921,-6.0225,6.563,4.5449,0,0,0,0,0,0,0.872715774,-1.745408606,178,-0.785398163,0,0,0,-0.000002,0.000001,0,0,0,-713620.6306,-4045266.543,4863134.921,-6.0225,6.563,4.5449,0,0,0,0.872715774,-1.745408606,178,2.29
46200,-713621.2329,-4045265.887,4863135.375,-6.0225,6.563,4.5449,0,0,0,0,0,0,0.872715885,-1.745408779,178,-0.785398163,0,0,0,-0.000002,0.000001,0,0,0,-713621.2329,-4045265.887,4863135.375,-6.0225,6.563,4.5449,0,0,0,0.872715885,-1.745408779,178,2.29
46300,-713621.8351,-4045265.231,4863135.83,-6.0225,6.563,4.5449,0,0,0,0,0,0,0.872715996,-1.745408951,178,-0.785398163,0,0,0,-0.000002,0.000001,0,0,0,-713621.8351,-4045265.231,4863135.83,-6.0225,6.563,4.5449,0,0,0,0.872715996,-1.745408951,178,2.29
46400,-713622.4373,-4045264.574,4863136.284,-6.0225,6.563,4.5449,0,0,0,0,0,0,0.872716107,-1.745409123,178,-0.785398163,0,0,0,-0.000002,0.000001,0,0,0,-713622.4373,-4045264.574,4863136.284,-6.0225,6.563,4.5449,0,0,0,0.872716107,-1.745409123,178,2.29
46500,-713623.0396,-4045263.918,4863136.739,-6.0225,6.5631,4.5449,0,0,0,0,0,0,0.872716218,-1.745409295,178,-0.785398163,0,0,0,-0.000002,0.000001,0,0,0,-713623.0396,-4045263.918,4863136.739,-6.0225,6.5631,4.5449,0,0,0,0.872716218,-1.745409295,178,2.29
46600,-713623.6418,-4045263.262,4863137.193,-6.0225,6.5631,4.5449,0,0,0,0,0,0,0.872716329,-1.745409467,178,-0.785398163,0,0,0,-0.000002,0.000001,0,0,0,-713623.6418,-4045263.262,4863137.193,-6.0225,6.5631,4.5449,0,0,0,0.872716329,-1.745409467,178,2.29
46700,-713624.2441,-4045262.605,4863137.648,-6.0225,6.5631,4.5449,0,0,0,0,0,0,0.87271644,-1.745409639,178,-0.785398163,0,0,0,-0.000002,0.000001,0,0,0,-713624.2441,-4045262.605,4863137.648,-6.0225,6.5631,4.5449,0,0,0,0.87271644,-1.745409639,178,2.29
46800,-713624.8463,-4045261.949,4863138.102,-6.0225,6.5631,4.5449,0,0,0,0,0,0,0.872716551,-1.745409811,178,-0.785398163,0,0,0,-0.000002,0.000001,0,0,0,-713624.8463,-4045261.949,4863138.102,-6.0225,6.5631,4.5449,0,0,0,0.872716551,-1.745409811,178,2.29
46900,-713625.4486,-4045261.293,4863138.557,-6.0225,6.5631,4.5449,0,0,0,0,0,0,0.872716662,-1.745409984,178,-0.785398163,0,0,0,-0.000002,0.000001,0,0,0,-713625.4486,-4045261.293,4863138.557,-6.0225,6.5631,4.5449,0,0,0,0.872716662,-1.745409984,178,2.29
47000,-713626.0508,-4045260.637,4863139.011,-6.0225,6.5631,4.5449,0,0,0,0,0,0,0.872716773,-1.745410156,178,-0.785398163,0,0,0,-0.000002,0.000001,0,0,0,-713626.0508,-4045260.637,4863139.011,-6.0225,6.5631,4.5449,0,0,0,0.872716773,-1.745410156,178,2.29
47100,-713626.6531,-4045259.98,4863139.466,-6.0225,6.5631,4.5449,0,0,0,0,0,0,0.872716884,-1.745410328,178,-0.785398163,0,0,0,-0.000002,0.000001,0,0,0,-713626.6531,-4045259.98,4863139.466,-6.0225,6.5631,4.5449,0,0,0,0.872716884,-1.745410328,178,2.29
47200,-713627.2553,-4045259.324,4863139.92,-6.0225,6.5631,4.5449,0,0,0,0,0,0,0.872716995,-1.7454105,178,-0.785398163,0,0,0,-0.000002,0.000001,0,0,0,-713627.2553,-4045259.324,4863139.92,-6.0225,6.5631,4.5449,0,0,0,0.872716995,-1.7454105,178,2.29
47300,-713627.8576,-4045258.668,4863140.375,-6.0225,6.5631,4.5449,0,0,0,0,0,0,0.872717106,-1.745410672,178,-0.785398163,0,0,0,-0.000002,0.000001,0,0,0,-713627.8576,-4045258.668,4863140.375,-6.0225,6.5631,4.5449,0,0,0,0.872717106,-1.745410672,178,2.29
47400,-713628.4598,-4045258.011,4863140.829,-6.0225,6.5631,4.5449,0,0,0,0,0,0,0.872717217,-1.745410844,178,-0.785398163,0,0,0,-0.000002,0.000001,0,0,0,-713628.4598,-4045258.011,4863140.829,-6.0225,6.5631,4.5449,0,0,0,0.872717217,-1.745410844,178,2.29
47500,-713629.0621,-4045257.355,4863141.284,-6.0225,6.5631,4.5449,0,0,0,0,0,0,0.872717328,-1.745411016,178,-0.785398163,0,0,0,-0.000002,0.000001,0,0,0,-713629.0621,-4045257.355,4863141.284,-6.0225,6.5631,4.5449,0,0,0,0.872717328,-1.745411016,178,2.29
47600,-713629.6643,-4045256.699,4863141.738,-6.0225,6.5631,4.5449,0,0,0,0,0,0,0.872717439,-1.745411189,178,-0.785398163,0,0,0,-0.000002,0.000001,0,0,0,-713629.6643,-4045256.699,4863141.738,-6.0225,6.5631,4.5449,0,0,0,0.872717439,-1.745411189,178,2.29
47700,-713630.2665,-4045256.042,4863142.193,-6.0225,6.5631,4.5449,0,0,0,0,0,0,0.87271755,-1.745411361,178,-0.785398163,0,0,0,-0.000002,0.000001,0,0,0,-713630.2665,-4045256.042,4863142.193,-6.0225,6.5631,4.5449,0,0,0,0.87271755,-1.745411361,178,2.29
47800,-713630.8688,-4045255.386,4863142.647,-6.0225,6.5631,4.5449,0,0,0,0,0,0,0.872717661,-1.745411533,178,-0.785398163,0,0,0,-0.000002,0.000001,0,0,0,-713630.8688,-4045255.386,4863142.647,-6.0225,6.5631,4.5449,0,0,0,0.872717661,-1.745411533,178,2.29
